participantId,trialNumber,block,timePressure,complexity,trialType,hmm_state,state_label,is_shift,rt_norm,choice_entropy,responseTimeMs,timedOut,pointsEarned
AUA-20260201-154949-463,11,1,low,low,flanker,1,Intuitive,0,-1.1913418170327044,3.4661976109059574e-09,1305,False,125
AUA-20260201-154949-463,12,1,low,low,gamble,1,Intuitive,0,0.4844611405703363,3.4661976109059574e-09,3056,False,115
AUA-20260201-154949-463,13,1,low,low,reverse-stroop,1,Intuitive,0,0.1762894944548713,3.4661976109059574e-09,2734,False,125
AUA-20260201-154949-463,14,1,low,low,numerical-stroop,1,Intuitive,0,-0.1730355081294289,3.4661976109059574e-09,2369,False,125
AUA-20260201-154949-463,15,1,low,low,flanker,1,Intuitive,0,-0.0715876991597417,3.4661976109059574e-09,2475,False,125
AUA-20260201-154949-463,16,1,low,low,number-word,1,Intuitive,0,0.5323138806503774,0.6500224216483541,3106,False,125
AUA-20260201-154949-463,17,1,low,low,gamble,1,Intuitive,0,2.1880186874198007,0.863120568566631,4836,False,145
AUA-20260201-154949-463,18,1,low,low,crt,1,Intuitive,0,0.691184977716114,0.8112781244591328,3272,False,145
AUA-20260201-154949-463,19,1,low,low,number-word,1,Intuitive,0,-0.4591948938080749,0.9182958340544896,2070,False,125
AUA-20260201-154949-463,20,1,low,low,flanker,1,Intuitive,0,0.762007033034575,0.8812908992306927,3346,False,125
AUA-20260201-154949-463,21,2,low,high,reverse-stroop,1,Intuitive,0,-0.1931336589630462,0.8812908992306927,2348,False,125
AUA-20260201-154949-463,22,2,low,high,flanker,1,Intuitive,0,-0.2783115363055194,0.8812908992306927,2259,False,125
AUA-20260201-154949-463,23,2,low,high,crt,1,Intuitive,0,1.875061767296332,0.9709505944546686,4509,False,145
AUA-20260201-154949-463,24,2,low,high,gamble,1,Intuitive,0,1.998521836702838,0.9709505944546686,4638,False,115
AUA-20260201-154949-463,25,2,low,high,stroop,1,Intuitive,0,0.361958125965431,0.9709505944546686,2928,False,125
AUA-20260201-154949-463,26,2,low,high,reverse-stroop,1,Intuitive,0,0.1217373707636244,0.8812908992306927,2677,False,125
AUA-20260201-154949-463,27,2,low,high,reverse-stroop,1,Intuitive,0,-0.469722496625684,0.7219280948873623,2059,False,125
AUA-20260201-154949-463,28,2,low,high,gamble,1,Intuitive,0,0.5610255246984022,0.8812908992306927,3136,False,155
AUA-20260201-154949-463,29,2,low,high,stroop,1,Intuitive,0,0.1581054532244557,0.8812908992306927,2715,False,125
AUA-20260201-154949-463,30,2,low,high,reverse-stroop,1,Intuitive,0,-0.3175507831711531,0.9709505944546686,2218,False,125
AUA-20260201-154949-463,31,3,high,low,crt,1,Intuitive,0,-0.9051824313540584,1.0,1604,False,145
AUA-20260201-154949-463,32,3,high,low,gamble,1,Intuitive,0,0.2442403853685298,0.9709505944546686,2805,False,125
AUA-20260201-154949-463,33,3,high,low,reverse-stroop,1,Intuitive,0,-0.4936488666657045,1.0,2034,False,125
AUA-20260201-154949-463,34,3,high,low,numerical-stroop,1,Intuitive,0,0.8337861431546366,1.0,3421,False,125
AUA-20260201-154949-463,35,3,high,low,numerical-stroop,1,Intuitive,0,-0.7606671563123341,0.9709505944546686,1755,False,125
AUA-20260201-154949-463,36,3,high,low,flanker,1,Intuitive,0,-0.9204953081796716,0.9709505944546686,1588,False,125
AUA-20260201-154949-463,37,3,high,low,stroop,1,Intuitive,0,-1.067881747626198,0.9709505944546686,1434,False,125
AUA-20260201-154949-463,38,3,high,low,stroop,1,Intuitive,0,0.4270378524742869,0.9709505944546686,2996,False,125
AUA-20260201-154949-463,39,3,high,low,number-word,1,Intuitive,0,1.177368816929332,0.9709505944546686,3780,False,125
AUA-20260201-154949-463,40,3,high,low,stroop,1,Intuitive,0,-1.0449124323877783,0.9709505944546686,1458,False,125
AUA-20260201-154949-463,41,4,high,high,numerical-stroop,1,Intuitive,0,-1.1262620905238483,0.9709505944546686,1373,False,125
AUA-20260201-154949-463,42,4,high,high,numerical-stroop,1,Intuitive,0,-1.1674154469926838,1.0,1330,False,125
AUA-20260201-154949-463,43,4,high,high,stroop,1,Intuitive,0,-0.6305077032946222,1.0,1891,False,125
AUA-20260201-154949-463,44,4,high,high,number-word,1,Intuitive,0,0.4174673044582787,0.9709505944546686,2986,False,125
AUA-20260201-154949-463,45,4,high,high,stroop,1,Intuitive,0,-1.9569856583133625,0.9709505944546686,505,False,125
AUA-20260201-154949-463,46,4,high,high,flanker,1,Intuitive,0,-1.6124459297370664,0.8812908992306927,865,False,125
AUA-20260201-154949-463,47,4,high,high,crt,0,Analytical,1,2.042546357576476,0.8812908992306927,4684,False,5
AUA-20260201-154949-463,48,4,high,high,gamble,0,Analytical,0,0.9696879249819534,0.8812908992306927,3563,False,115
AUA-20260201-154949-463,49,4,high,high,stroop,0,Analytical,0,-0.6888880461922724,0.9709505944546686,1830,False,125
AUA-20260201-154949-463,50,4,high,high,stroop,0,Analytical,0,-0.4936488666657045,0.9709505944546686,2034,False,125
AUA-20260201-214332-929,11,1,low,low,reverse-stroop,0,Analytical,0,-0.1202448535828216,3.4661976109059574e-09,2538,False,125
AUA-20260201-214332-929,12,1,low,low,numerical-stroop,0,Analytical,0,0.2597899015355278,3.4661976109059574e-09,3111,False,125
AUA-20260201-214332-929,13,1,low,low,numerical-stroop,0,Analytical,0,-0.2416172099295196,0.9182958340544896,2355,False,125
AUA-20260201-214332-929,14,1,low,low,crt,0,Analytical,0,0.0747468008758078,0.8112781244591328,2832,False,145
AUA-20260201-214332-929,15,1,low,low,flanker,0,Analytical,0,-1.6708927723728757,0.7219280948873623,200,False,125
AUA-20260201-214332-929,16,1,low,low,stroop,0,Analytical,0,-0.8206230410260625,0.9182958340544896,1482,False,125
AUA-20260201-214332-929,17,1,low,low,number-word,0,Analytical,0,0.5940613091788927,0.9852281360342516,3615,False,125
AUA-20260201-214332-929,18,1,low,low,gamble,0,Analytical,0,1.301735102741334,0.954434002924965,4682,False,105
AUA-20260201-214332-929,19,1,low,low,gamble,0,Analytical,0,0.3937637593608447,0.9182958340544896,3313,False,159
AUA-20260201-214332-929,20,1,low,low,stroop,0,Analytical,0,-0.4611486304254597,0.9709505944546686,2024,False,125
AUA-20260201-214332-929,21,2,low,high,numerical-stroop,0,Analytical,0,-0.180599413296207,1.0,2447,False,125
AUA-20260201-214332-929,22,2,low,high,crt,0,Analytical,0,1.4363721974865782,1.0,4885,False,145
AUA-20260201-214332-929,23,2,low,high,numerical-stroop,0,Analytical,0,0.6086525214172935,0.9709505944546686,3637,False,125
AUA-20260201-214332-929,24,2,low,high,flanker,0,Analytical,0,0.2498413477366181,1.0,3096,False,125
AUA-20260201-214332-929,25,2,low,high,stroop,0,Analytical,0,-1.4553407733964996,0.9709505944546686,525,False,125
AUA-20260201-214332-929,26,2,low,high,gamble,0,Analytical,0,1.2427070168678032,0.9709505944546686,4593,False,159
AUA-20260201-214332-929,27,2,low,high,crt,0,Analytical,0,0.8003279912762865,1.0,3926,False,145
AUA-20260201-214332-929,28,2,low,high,stroop,0,Analytical,0,-0.2184039177320637,0.9709505944546686,2390,False,125
AUA-20260201-214332-929,29,2,low,high,number-word,0,Analytical,0,0.6325290505346768,0.9709505944546686,3673,False,125
AUA-20260201-214332-929,30,2,low,high,crt,0,Analytical,0,2.571170567482208,1.0,6596,False,145
AUA-20260201-214332-929,31,3,high,low,reverse-stroop,1,Intuitive,1,2.8391182831328416,0.9709505944546686,7000,True,-10
AUA-20260201-214332-929,32,3,high,low,reverse-stroop,1,Intuitive,0,-0.6740476817221267,0.9709505944546686,1703,False,125
AUA-20260201-214332-929,33,3,high,low,stroop,1,Intuitive,0,-0.6189990173681599,0.9709505944546686,1786,False,125
AUA-20260201-214332-929,34,3,high,low,flanker,1,Intuitive,0,-0.71516837075762,0.9709505944546686,1641,False,125
AUA-20260201-214332-929,35,3,high,low,numerical-stroop,1,Intuitive,0,-0.687312420120673,0.8812908992306927,1683,False,125
AUA-20260201-214332-929,36,3,high,low,numerical-stroop,1,Intuitive,0,-1.228513746781359,0.7219280948873623,867,False,125
AUA-20260201-214332-929,37,3,high,low,numerical-stroop,1,Intuitive,0,-0.5732356698931753,0.8812908992306927,1855,False,125
AUA-20260201-214332-929,38,3,high,low,flanker,1,Intuitive,0,0.6152848906165667,0.7219280948873623,3647,False,125
AUA-20260201-214332-929,39,3,high,low,numerical-stroop,1,Intuitive,0,0.0521967455982792,0.7219280948873623,2798,False,125
AUA-20260201-214332-929,40,3,high,low,number-word,1,Intuitive,0,0.9415974552208038,0.7219280948873623,4139,False,125
AUA-20260201-214332-929,41,4,high,high,reverse-stroop,0,Analytical,1,0.017708425762059,0.7219280948873623,2746,False,125
AUA-20260201-214332-929,42,4,high,high,gamble,0,Analytical,0,1.018532937932372,0.8812908992306927,4255,False,105
AUA-20260201-214332-929,43,4,high,high,gamble,0,Analytical,0,-0.9870955079278176,0.9709505944546686,1231,False,159
AUA-20260201-214332-929,44,4,high,high,stroop,0,Analytical,0,-0.4717604211442967,0.8812908992306927,2008,False,125
AUA-20260201-214332-929,45,4,high,high,numerical-stroop,0,Analytical,0,-0.9081703144564676,0.8812908992306927,1350,False,125
AUA-20260201-214332-929,46,4,high,high,number-word,0,Analytical,0,-0.6932815524000188,0.8812908992306927,1674,False,125
AUA-20260201-214332-929,47,4,high,high,crt,0,Analytical,0,-0.2111083116128633,0.8812908992306927,2401,False,145
AUA-20260201-214332-929,48,4,high,high,crt,0,Analytical,0,-0.8232759887057718,0.9709505944546686,1478,False,145
AUA-20260201-214332-929,49,4,high,high,crt,0,Analytical,0,-0.7887876688695515,0.9709505944546686,1530,False,145
AUA-20260201-214332-929,50,4,high,high,stroop,0,Analytical,0,-1.100509021235388,0.9709505944546686,1060,False,125
AUA-20260202-093857-453,11,1,low,low,numerical-stroop,0,Analytical,0,-0.2238913912701104,3.466197873826607e-09,2377,False,125
AUA-20260202-093857-453,12,1,low,low,stroop,0,Analytical,0,-0.8711124142382788,3.466197873826607e-09,1401,False,125
AUA-20260202-093857-453,13,1,low,low,gamble,0,Analytical,0,1.0831502442526966,3.466197873826607e-09,4348,False,115
AUA-20260202-093857-453,14,1,low,low,crt,0,Analytical,0,1.4021188016786073,0.8112781244591328,4829,False,145
AUA-20260202-093857-453,15,1,low,low,number-word,0,Analytical,0,0.7966753652339992,0.9709505944546686,3916,False,125
AUA-20260202-093857-453,16,1,low,low,flanker,0,Analytical,0,-0.1807875321585009,0.9182958340544896,2442,False,125
AUA-20260202-093857-453,17,1,low,low,gamble,0,Analytical,0,0.6759845597214923,0.863120568566631,3734,False,135
AUA-20260202-093857-453,18,1,low,low,crt,0,Analytical,0,-0.1317154464006684,0.954434002924965,2516,False,145
AUA-20260202-093857-453,19,1,low,low,gamble,0,Analytical,0,0.355689729707532,0.9910760598382222,3251,False,115
AUA-20260202-093857-453,20,1,low,low,gamble,0,Analytical,0,0.1149712549765432,1.0,2888,False,150
AUA-20260202-093857-453,21,2,low,high,reverse-stroop,0,Analytical,0,-0.1715036240421542,1.0,2456,False,125
AUA-20260202-093857-453,22,2,low,high,stroop,0,Analytical,0,-0.1025374494635789,1.0,2560,False,125
AUA-20260202-093857-453,23,2,low,high,crt,0,Analytical,0,1.5911126454756648,1.0,5114,False,145
AUA-20260202-093857-453,24,2,low,high,flanker,0,Analytical,0,-0.0362238200611026,0.9709505944546686,2660,False,125
AUA-20260202-093857-453,25,2,low,high,crt,0,Analytical,0,1.277449178401952,0.8812908992306927,4641,False,145
AUA-20260202-093857-453,26,2,low,high,numerical-stroop,0,Analytical,0,0.5287683024479951,0.9709505944546686,3512,False,125
AUA-20260202-093857-453,27,2,low,high,flanker,0,Analytical,0,0.2681557388962634,0.9709505944546686,3119,False,125
AUA-20260202-093857-453,28,2,low,high,flanker,0,Analytical,0,0.0844669854514041,0.8812908992306927,2842,False,125
AUA-20260202-093857-453,29,2,low,high,gamble,0,Analytical,0,0.7303617358315229,0.7219280948873623,3816,False,159
AUA-20260202-093857-453,30,2,low,high,flanker,0,Analytical,0,-1.520985982382546,0.4689955935892811,421,False,125
AUA-20260202-093857-453,31,3,high,low,reverse-stroop,0,Analytical,0,-0.3492241508407906,0.4689955935892811,2188,False,125
AUA-20260202-093857-453,32,3,high,low,flanker,0,Analytical,0,-0.9546675872853988,0.7219280948873623,1275,False,125
AUA-20260202-093857-453,33,3,high,low,crt,0,Analytical,0,1.86896675267204,0.7219280948873623,5533,False,145
AUA-20260202-093857-453,34,3,high,low,stroop,0,Analytical,0,-0.4181903254193659,0.7219280948873623,2084,False,125
AUA-20260202-093857-453,35,3,high,low,numerical-stroop,0,Analytical,0,-1.2796043713575325,0.7219280948873623,785,False,125
AUA-20260202-093857-453,36,3,high,low,gamble,0,Analytical,0,0.4684228996917416,0.4689955935892811,3421,False,135
AUA-20260202-093857-453,37,3,high,low,gamble,0,Analytical,0,-0.4984298169963622,0.7219280948873623,1963,False,145
AUA-20260202-093857-453,38,3,high,low,crt,0,Analytical,0,0.4021092702892654,0.7219280948873623,3321,False,145
AUA-20260202-093857-453,39,3,high,low,flanker,0,Analytical,0,-1.6675391033620186,0.7219280948873623,200,False,125
AUA-20260202-093857-453,40,3,high,low,gamble,0,Analytical,0,-0.356518650075063,0.7219280948873623,2177,False,125
AUA-20260202-093857-453,41,4,high,high,number-word,0,Analytical,0,-1.6675391033620186,0.7219280948873623,200,False,5
AUA-20260202-093857-453,42,4,high,high,crt,0,Analytical,0,0.7608660053566619,0.4689955935892811,3862,False,145
AUA-20260202-093857-453,43,4,high,high,flanker,1,Intuitive,1,2.841787696006367,0.7219280948873623,7000,True,-10
AUA-20260202-093857-453,44,4,high,high,gamble,1,Intuitive,0,-0.4553259578847526,0.7219280948873623,2028,False,145
AUA-20260202-093857-453,45,4,high,high,flanker,1,Intuitive,0,-0.3910017373643506,0.8812908992306927,2125,False,125
AUA-20260202-093857-453,46,4,high,high,number-word,1,Intuitive,0,-0.8810594586486502,0.9709505944546686,1386,False,125
AUA-20260202-093857-453,47,4,high,high,gamble,1,Intuitive,0,-0.440073823122183,0.9709505944546686,2051,False,150
AUA-20260202-093857-453,48,4,high,high,flanker,1,Intuitive,0,-1.5090495290901005,1.0,439,False,125
AUA-20260202-093857-453,49,4,high,high,numerical-stroop,1,Intuitive,0,0.0552889885143145,1.0,2798,False,125
AUA-20260202-093857-453,50,4,high,high,reverse-stroop,1,Intuitive,0,-1.1993648797805363,1.0,906,False,125
AUA-20260202-225153-508,11,1,low,low,crt,1,Intuitive,0,-0.0812810363145647,3.4661976109059574e-09,2709,False,145
AUA-20260202-225153-508,12,1,low,low,crt,1,Intuitive,0,0.324226012260308,1.0,3612,False,145
AUA-20260202-225153-508,13,1,low,low,flanker,1,Intuitive,0,-0.322429746264406,0.9182958340544896,2172,False,125
AUA-20260202-225153-508,14,1,low,low,gamble,1,Intuitive,0,0.5465139292531785,0.8112781244591328,4107,False,105
AUA-20260202-225153-508,15,1,low,low,crt,0,Analytical,1,4.090995805666768,0.7219280948873623,12000,True,-10
AUA-20260202-225153-508,16,1,low,low,numerical-stroop,1,Intuitive,1,0.0157173274641423,0.6500224216483541,2925,False,125
AUA-20260202-225153-508,17,1,low,low,numerical-stroop,1,Intuitive,0,-0.2820137613566114,0.863120568566631,2262,False,125
AUA-20260202-225153-508,18,1,low,low,reverse-stroop,1,Intuitive,0,-0.3327582757408425,0.954434002924965,2149,False,125
AUA-20260202-225153-508,19,1,low,low,reverse-stroop,1,Intuitive,0,-0.1975892595492182,0.9910760598382222,2450,False,125
AUA-20260202-225153-508,20,1,low,low,numerical-stroop,1,Intuitive,0,-1.207988882244084,0.9709505944546686,200,False,125
AUA-20260202-225153-508,21,2,low,high,flanker,1,Intuitive,0,0.1580714076393745,0.9709505944546686,3242,False,125
AUA-20260202-225153-508,22,2,low,high,number-word,1,Intuitive,0,0.6430632265329101,0.8812908992306927,4322,False,125
AUA-20260202-225153-508,23,2,low,high,gamble,1,Intuitive,0,1.3296859034664434,0.8812908992306927,5851,False,135
AUA-20260202-225153-508,24,2,low,high,gamble,1,Intuitive,0,-0.5119358088320654,0.9709505944546686,1750,False,150
AUA-20260202-225153-508,25,2,low,high,stroop,1,Intuitive,0,-0.050744514384231,0.9709505944546686,2777,False,125
AUA-20260202-225153-508,26,2,low,high,number-word,1,Intuitive,0,0.4522099644683244,0.9709505944546686,3897,False,5
AUA-20260202-225153-508,27,2,low,high,crt,1,Intuitive,0,1.3997402773066208,0.8812908992306927,6007,False,145
AUA-20260202-225153-508,28,2,low,high,gamble,1,Intuitive,0,0.4688254249304178,0.8812908992306927,3934,False,159
AUA-20260202-225153-508,29,2,low,high,stroop,1,Intuitive,0,-0.6731506819642684,0.7219280948873623,1391,False,125
AUA-20260202-225153-508,30,2,low,high,number-word,1,Intuitive,0,-0.0929567652879276,0.8812908992306927,2683,False,125
AUA-20260202-225153-508,31,3,high,low,number-word,1,Intuitive,0,-0.2106121880195076,0.9709505944546686,2421,False,125
AUA-20260202-225153-508,32,3,high,low,crt,0,Analytical,1,1.8456633107892884,0.9709505944546686,7000,True,-10
AUA-20260202-225153-508,33,3,high,low,reverse-stroop,1,Intuitive,1,-0.5330419342839137,0.9709505944546686,1703,False,125
AUA-20260202-225153-508,34,3,high,low,flanker,1,Intuitive,0,0.1037343612633395,0.8812908992306927,3121,False,125
AUA-20260202-225153-508,35,3,high,low,stroop,1,Intuitive,0,-1.1388326414018577,0.9709505944546686,354,False,125
AUA-20260202-225153-508,36,3,high,low,reverse-stroop,1,Intuitive,0,-0.879272204994021,0.9709505944546686,932,False,125
AUA-20260202-225153-508,37,3,high,low,number-word,1,Intuitive,0,0.2891988253402194,0.9709505944546686,3534,False,125
AUA-20260202-225153-508,38,3,high,low,reverse-stroop,1,Intuitive,0,-0.6403688275390572,0.8812908992306927,1464,False,125
AUA-20260202-225153-508,39,3,high,low,numerical-stroop,1,Intuitive,0,-0.2972820223217783,0.9709505944546686,2228,False,125
AUA-20260202-225153-508,40,3,high,low,flanker,1,Intuitive,0,-0.718057331861818,0.8812908992306927,1291,False,125
AUA-20260202-225153-508,41,4,high,high,number-word,1,Intuitive,0,-0.0013471994969264,0.8812908992306927,2887,False,5
AUA-20260202-225153-508,42,4,high,high,crt,1,Intuitive,0,-0.4638856934416873,0.8812908992306927,1857,False,145
AUA-20260202-225153-508,43,4,high,high,numerical-stroop,1,Intuitive,0,-0.8415506190800794,0.8812908992306927,1016,False,125
AUA-20260202-225153-508,44,4,high,high,number-word,1,Intuitive,0,-0.5653747222101494,0.9709505944546686,1631,False,125
AUA-20260202-225153-508,45,4,high,high,gamble,1,Intuitive,0,-0.105081560760266,0.9709505944546686,2656,False,159
AUA-20260202-225153-508,46,4,high,high,stroop,1,Intuitive,0,-0.4818483534007071,0.9709505944546686,1817,False,125
AUA-20260202-225153-508,47,4,high,high,flanker,1,Intuitive,0,-1.207988882244084,1.0,200,False,125
AUA-20260202-225153-508,48,4,high,high,crt,1,Intuitive,0,-1.030607615148763,0.9709505944546686,595,False,145
AUA-20260202-225153-508,49,4,high,high,stroop,0,Analytical,1,1.8456633107892884,1.0,7000,True,-10
AUA-20260202-225153-508,50,4,high,high,crt,1,Intuitive,1,-0.6453085590277877,1.0,1453,False,145
AUA-20260203-084744-658,11,1,low,low,numerical-stroop,0,Analytical,0,-1.0583423657485087,3.4661976109059574e-09,1131,False,125
AUA-20260203-084744-658,12,1,low,low,number-word,1,Intuitive,1,1.117297516112708,3.4661976109059574e-09,4146,False,125
AUA-20260203-084744-658,13,1,low,low,flanker,1,Intuitive,0,-0.0755159912559789,0.9182958340544896,2493,False,125
AUA-20260203-084744-658,14,1,low,low,stroop,1,Intuitive,0,-0.4146704670353394,0.8112781244591328,2023,False,125
AUA-20260203-084744-658,15,1,low,low,flanker,1,Intuitive,0,-0.2313827290609616,0.9709505944546686,2277,False,125
AUA-20260203-084744-658,16,1,low,low,stroop,1,Intuitive,0,0.1958075893675094,1.0,2869,False,125
AUA-20260203-084744-658,17,1,low,low,crt,1,Intuitive,0,2.5323654459070184,0.9852281360342516,6107,False,145
AUA-20260203-084744-658,18,1,low,low,stroop,1,Intuitive,0,0.1445736153667975,1.0,2798,False,125
AUA-20260203-084744-658,19,1,low,low,stroop,1,Intuitive,0,1.0797740421966937,0.9910760598382222,4094,False,125
AUA-20260203-084744-658,20,1,low,low,crt,1,Intuitive,0,1.7234459409098628,1.0,4986,False,145
AUA-20260203-084744-658,21,2,low,high,stroop,1,Intuitive,0,0.2528144055091466,0.9709505944546686,2948,False,125
AUA-20260203-084744-658,22,2,low,high,crt,1,Intuitive,0,0.2975539321013176,0.9709505944546686,3010,False,145
AUA-20260203-084744-658,23,2,low,high,stroop,1,Intuitive,0,-0.1332444126652318,0.9709505944546686,2413,False,125
AUA-20260203-084744-658,24,2,low,high,stroop,1,Intuitive,0,-0.1541709654260859,0.9709505944546686,2384,False,125
AUA-20260203-084744-658,25,2,low,high,reverse-stroop,1,Intuitive,0,0.2470415633682213,0.9709505944546686,2940,False,125
AUA-20260203-084744-658,26,2,low,high,stroop,1,Intuitive,0,-1.0056651812125654,0.9709505944546686,1204,False,125
AUA-20260203-084744-658,27,2,low,high,stroop,1,Intuitive,0,-0.7841323640545576,0.9709505944546686,1511,False,125
AUA-20260203-084744-658,28,2,low,high,reverse-stroop,1,Intuitive,0,0.2427119317625273,0.9709505944546686,2934,False,125
AUA-20260203-084744-658,29,2,low,high,stroop,1,Intuitive,0,0.528467617738329,0.9709505944546686,3330,False,125
AUA-20260203-084744-658,30,2,low,high,numerical-stroop,1,Intuitive,0,0.1734378260714239,1.0,2838,False,125
AUA-20260203-084744-658,31,3,high,low,gamble,1,Intuitive,0,0.2253934053397515,0.9709505944546686,2910,False,155
AUA-20260203-084744-658,32,3,high,low,numerical-stroop,1,Intuitive,0,0.1561192996486481,0.9709505944546686,2814,False,125
AUA-20260203-084744-658,33,3,high,low,stroop,1,Intuitive,0,-1.2856480250474418,0.8812908992306927,816,False,125
AUA-20260203-084744-658,34,3,high,low,flanker,1,Intuitive,0,-0.3352938875976167,0.9709505944546686,2133,False,125
AUA-20260203-084744-658,35,3,high,low,flanker,1,Intuitive,0,-1.6753148695598985,0.8812908992306927,276,False,125
AUA-20260203-084744-658,36,3,high,low,stroop,1,Intuitive,0,-0.8829922857179031,0.8812908992306927,1374,False,125
AUA-20260203-084744-658,37,3,high,low,reverse-stroop,1,Intuitive,0,-0.2075697552296448,0.7219280948873623,2310,False,125
AUA-20260203-084744-658,38,3,high,low,numerical-stroop,1,Intuitive,0,-0.7697002587022443,0.8812908992306927,1531,False,125
AUA-20260203-084744-658,39,3,high,low,crt,1,Intuitive,0,0.4065163275112823,0.9709505944546686,3161,False,145
AUA-20260203-084744-658,40,3,high,low,stroop,1,Intuitive,0,-1.7301568698986889,1.0,200,False,125
AUA-20260203-084744-658,41,4,high,high,gamble,0,Analytical,1,3.1767589498878035,1.0,7000,True,-10
AUA-20260203-084744-658,42,4,high,high,crt,1,Intuitive,1,-0.4659044410360513,0.9709505944546686,1952,False,145
AUA-20260203-084744-658,43,4,high,high,flanker,1,Intuitive,0,-0.0141795435086477,0.8812908992306927,2578,False,125
AUA-20260203-084744-658,44,4,high,high,reverse-stroop,1,Intuitive,0,-0.3504475982175456,0.9709505944546686,2112,False,125
AUA-20260203-084744-658,45,4,high,high,number-word,0,Analytical,1,-1.40399128893641,0.9709505944546686,652,False,125
AUA-20260203-084744-658,46,4,high,high,gamble,1,Intuitive,1,-0.4233297302467273,0.9709505944546686,2011,False,105
AUA-20260203-084744-658,47,4,high,high,gamble,1,Intuitive,0,1.14688333208495,0.8812908992306927,4187,False,115
AUA-20260203-084744-658,48,4,high,high,gamble,1,Intuitive,0,0.0204575093369039,0.8812908992306927,2626,False,115
AUA-20260203-084744-658,49,4,high,high,number-word,1,Intuitive,0,-0.5734236259107848,0.9709505944546686,1803,False,125
AUA-20260203-084744-658,50,4,high,high,gamble,1,Intuitive,0,0.3076564058479368,1.0,3024,False,105
AUA-20260203-161818-565,11,1,low,low,numerical-stroop,1,Intuitive,0,-0.9703518831960856,3.466197873826607e-09,1109,False,125
AUA-20260203-161818-565,12,1,low,low,reverse-stroop,1,Intuitive,0,-0.7839284303549384,1.0,1580,False,125
AUA-20260203-161818-565,13,1,low,low,crt,1,Intuitive,0,0.3884415639454391,0.9182958340544896,4542,False,145
AUA-20260203-161818-565,14,1,low,low,reverse-stroop,1,Intuitive,0,-0.4162269702924635,1.0,2509,False,125
AUA-20260203-161818-565,15,1,low,low,numerical-stroop,0,Analytical,1,3.340344135684877,0.9709505944546686,12000,True,-10
AUA-20260203-161818-565,16,1,low,low,reverse-stroop,1,Intuitive,1,-0.6260028301774062,1.0,1979,False,125
AUA-20260203-161818-565,17,1,low,low,number-word,1,Intuitive,0,0.9188182662960488,0.9852281360342516,5882,False,125
AUA-20260203-161818-565,18,1,low,low,gamble,0,Analytical,1,3.340344135684877,1.0,12000,True,-10
AUA-20260203-161818-565,19,1,low,low,stroop,1,Intuitive,1,-0.0568373839235429,0.9910760598382222,3417,False,125
AUA-20260203-161818-565,20,1,low,low,reverse-stroop,1,Intuitive,0,-0.3042145771840885,1.0,2792,False,125
AUA-20260203-161818-565,21,2,low,high,reverse-stroop,1,Intuitive,0,0.3033438094638114,1.0,4327,False,125
AUA-20260203-161818-565,22,2,low,high,gamble,1,Intuitive,0,0.3916079920191741,1.0,4550,False,159
AUA-20260203-161818-565,23,2,low,high,numerical-stroop,1,Intuitive,0,-0.1732036156333035,0.9709505944546686,3123,False,125
AUA-20260203-161818-565,24,2,low,high,number-word,1,Intuitive,0,-0.1387687103314356,1.0,3210,False,125
AUA-20260203-161818-565,25,2,low,high,reverse-stroop,1,Intuitive,0,-0.7308907601198775,1.0,1714,False,125
AUA-20260203-161818-565,26,2,low,high,stroop,1,Intuitive,0,-0.3564606404007157,1.0,2660,False,125
AUA-20260203-161818-565,27,2,low,high,gamble,1,Intuitive,0,-0.4554115177049339,0.9709505944546686,2410,False,125
AUA-20260203-161818-565,28,2,low,high,stroop,1,Intuitive,0,0.3215507708877876,0.9709505944546686,4373,False,125
AUA-20260203-161818-565,29,2,low,high,stroop,1,Intuitive,0,-0.5559456090460196,1.0,2156,False,125
AUA-20260203-161818-565,30,2,low,high,crt,1,Intuitive,0,-0.1201659453982425,1.0,3257,False,145
AUA-20260203-161818-565,31,3,high,low,flanker,1,Intuitive,0,-0.1613295103567973,0.9709505944546686,3153,False,125
AUA-20260203-161818-565,32,3,high,low,stroop,1,Intuitive,0,-0.2250538753407139,1.0,2992,False,125
AUA-20260203-161818-565,33,3,high,low,crt,1,Intuitive,0,0.2150796269084487,0.9709505944546686,4104,False,145
AUA-20260203-161818-565,34,3,high,low,number-word,1,Intuitive,0,-0.7190166548433713,0.9709505944546686,1744,False,125
AUA-20260203-161818-565,35,3,high,low,crt,0,Analytical,1,1.361326589600513,0.9709505944546686,7000,True,-10
AUA-20260203-161818-565,36,3,high,low,reverse-stroop,0,Analytical,0,1.361326589600513,0.8812908992306927,7000,True,-10
AUA-20260203-161818-565,37,3,high,low,numerical-stroop,1,Intuitive,1,-0.5385302546404772,0.8812908992306927,2200,False,5
AUA-20260203-161818-565,38,3,high,low,flanker,1,Intuitive,0,-1.241081483500427,0.9709505944546686,425,False,5
AUA-20260203-161818-565,39,3,high,low,flanker,1,Intuitive,0,-0.6465846126566835,0.9709505944546686,1927,False,125
AUA-20260203-161818-565,40,3,high,low,gamble,1,Intuitive,0,0.0045121600050723,0.9709505944546686,3572,False,150
AUA-20260203-161818-565,41,4,high,high,gamble,1,Intuitive,0,-0.6814153214677684,1.0,1839,False,125
AUA-20260203-161818-565,42,4,high,high,gamble,1,Intuitive,0,-0.8262794058411439,1.0,1473,False,115
AUA-20260203-161818-565,43,4,high,high,reverse-stroop,0,Analytical,1,1.361326589600513,1.0,7000,True,-10
AUA-20260203-161818-565,44,4,high,high,gamble,1,Intuitive,1,-0.1205617489074594,0.9709505944546686,3256,False,145
AUA-20260203-161818-565,45,4,high,high,stroop,1,Intuitive,0,-0.0861268436055915,0.8812908992306927,3343,False,125
AUA-20260203-161818-565,46,4,high,high,gamble,1,Intuitive,0,-0.4340381282072228,0.8812908992306927,2464,False,150
AUA-20260203-161818-565,47,4,high,high,reverse-stroop,1,Intuitive,0,-0.6402517565092136,0.7219280948873623,1943,False,125
AUA-20260203-161818-565,48,4,high,high,crt,1,Intuitive,0,-0.8025311952881315,0.8812908992306927,1533,False,145
AUA-20260203-161818-565,49,4,high,high,gamble,1,Intuitive,0,0.4220848622288733,0.9709505944546686,4627,False,115
AUA-20260203-161818-565,50,4,high,high,stroop,1,Intuitive,0,-0.918897426997892,1.0,1239,False,125
AUA-20260204-183505-496,11,1,low,low,flanker,1,Intuitive,0,-0.9115447211537572,3.4661976109059574e-09,937,False,125
AUA-20260204-183505-496,12,1,low,low,numerical-stroop,0,Analytical,1,-0.2621214266767979,3.4661976109059574e-09,2283,False,5
AUA-20260204-183505-496,13,1,low,low,number-word,1,Intuitive,1,-0.5207327831698515,0.9182958340544896,1747,False,125
AUA-20260204-183505-496,14,1,low,low,gamble,1,Intuitive,0,0.1422000597806253,0.8112781244591328,3121,False,145
AUA-20260204-183505-496,15,1,low,low,stroop,1,Intuitive,0,0.8567586772549022,0.9709505944546686,4602,False,125
AUA-20260204-183505-496,16,1,low,low,flanker,1,Intuitive,0,0.5624435140818375,1.0,3992,False,125
AUA-20260204-183505-496,17,1,low,low,numerical-stroop,1,Intuitive,0,0.1127685434633189,0.9852281360342516,3060,False,125
AUA-20260204-183505-496,18,1,low,low,reverse-stroop,1,Intuitive,0,-0.0179845864053705,1.0,2789,False,125
AUA-20260204-183505-496,19,1,low,low,stroop,1,Intuitive,0,-0.1757568132210953,0.9910760598382222,2462,False,125
AUA-20260204-183505-496,20,1,low,low,gamble,1,Intuitive,0,-0.2799733300168035,0.9709505944546686,2246,False,150
AUA-20260204-183505-496,21,2,low,high,flanker,1,Intuitive,0,-0.8010559139953444,1.0,1166,False,125
AUA-20260204-183505-496,22,2,low,high,gamble,0,Analytical,1,4.426174377507907,1.0,12000,True,-10
AUA-20260204-183505-496,23,2,low,high,number-word,1,Intuitive,1,0.953255452065743,0.9709505944546686,4802,False,125
AUA-20260204-183505-496,24,2,low,high,flanker,1,Intuitive,0,0.2435216733320083,1.0,3331,False,125
AUA-20260204-183505-496,25,2,low,high,crt,1,Intuitive,0,0.4558145779158583,1.0,3771,False,145
AUA-20260204-183505-496,26,2,low,high,crt,0,Analytical,1,1.5196915202053791,1.0,5976,False,145
AUA-20260204-183505-496,27,2,low,high,numerical-stroop,1,Intuitive,1,-0.727235881265051,0.9709505944546686,1319,False,125
AUA-20260204-183505-496,28,2,low,high,gamble,1,Intuitive,0,-0.6857422680963895,1.0,1405,False,155
AUA-20260204-183505-496,29,2,low,high,gamble,1,Intuitive,0,0.1614994147427935,1.0,3161,False,135
AUA-20260204-183505-496,30,2,low,high,numerical-stroop,1,Intuitive,0,0.2922525446114829,1.0,3432,False,5
AUA-20260204-183505-496,31,3,high,low,gamble,1,Intuitive,0,-0.625431783839614,0.9709505944546686,1530,False,125
AUA-20260204-183505-496,32,3,high,low,gamble,1,Intuitive,0,0.519019965416959,1.0,3902,False,105
AUA-20260204-183505-496,33,3,high,low,stroop,1,Intuitive,0,-0.9192644631386244,1.0,921,False,125
AUA-20260204-183505-496,34,3,high,low,crt,1,Intuitive,0,1.206077002070146,1.0,5326,False,5
AUA-20260204-183505-496,35,3,high,low,flanker,1,Intuitive,0,-0.0831199094026881,0.9709505944546686,2654,False,125
AUA-20260204-183505-496,36,3,high,low,gamble,1,Intuitive,0,-0.3465561046362837,0.9709505944546686,2108,False,105
AUA-20260204-183505-496,37,3,high,low,crt,1,Intuitive,0,1.7705831347135654,0.9709505944546686,6496,False,145
AUA-20260204-183505-496,38,3,high,low,stroop,1,Intuitive,0,-0.4710369441422685,0.9709505944546686,1850,False,125
AUA-20260204-183505-496,39,3,high,low,reverse-stroop,1,Intuitive,0,-0.7021467198142324,0.9709505944546686,1371,False,125
AUA-20260204-183505-496,40,3,high,low,reverse-stroop,1,Intuitive,0,-0.2375147491000335,0.9709505944546686,2334,False,125
AUA-20260204-183505-496,41,4,high,high,flanker,1,Intuitive,0,-0.0030275863096901,1.0,2820,False,125
AUA-20260204-183505-496,42,4,high,high,numerical-stroop,1,Intuitive,0,-0.965582915047828,0.9709505944546686,825,False,125
AUA-20260204-183505-496,43,4,high,high,numerical-stroop,1,Intuitive,0,-1.1436194645738296,0.9709505944546686,456,False,125
AUA-20260204-183505-496,44,4,high,high,gamble,1,Intuitive,0,-0.4932312023487619,0.8812908992306927,1804,False,159
AUA-20260204-183505-496,45,4,high,high,stroop,1,Intuitive,0,-0.5274875574066104,0.8812908992306927,1733,False,125
AUA-20260204-183505-496,46,4,high,high,gamble,1,Intuitive,0,-0.4903362991044366,0.8812908992306927,1810,False,150
AUA-20260204-183505-496,47,4,high,high,number-word,1,Intuitive,0,0.0379835429849172,0.9709505944546686,2905,False,125
AUA-20260204-183505-496,48,4,high,high,numerical-stroop,1,Intuitive,0,-1.2671353363317055,0.8812908992306927,200,False,125
AUA-20260204-183505-496,49,4,high,high,gamble,1,Intuitive,0,-0.4097614921373845,0.8812908992306927,1977,False,155
AUA-20260204-183505-496,50,4,high,high,reverse-stroop,1,Intuitive,0,-0.1926437488129925,0.8812908992306927,2427,False,125
AUA-20260204-191953-258,11,1,low,low,stroop,1,Intuitive,0,0.2562074898774512,3.466197873826607e-09,3440,False,125
AUA-20260204-191953-258,12,1,low,low,flanker,1,Intuitive,0,-0.7600231787166296,1.0,1561,False,125
AUA-20260204-191953-258,13,1,low,low,reverse-stroop,0,Analytical,1,4.885762850795669,0.9182958340544896,12000,True,-10
AUA-20260204-191953-258,14,1,low,low,crt,1,Intuitive,1,-0.7113479471181904,1.0,1651,False,145
AUA-20260204-191953-258,15,1,low,low,number-word,1,Intuitive,0,-0.3132927198242875,0.9709505944546686,2387,False,125
AUA-20260204-191953-258,16,1,low,low,gamble,1,Intuitive,0,0.719163025969273,1.0,4296,False,115
AUA-20260204-191953-258,17,1,low,low,stroop,1,Intuitive,0,-0.6864694954123214,0.9852281360342516,1697,False,125
AUA-20260204-191953-258,18,1,low,low,gamble,1,Intuitive,0,-0.0531506487259624,1.0,2868,False,150
AUA-20260204-191953-258,19,1,low,low,reverse-stroop,1,Intuitive,0,-0.1510419478294901,0.9910760598382222,2687,False,125
AUA-20260204-191953-258,20,1,low,low,stroop,1,Intuitive,0,-0.1267043320302705,0.9709505944546686,2732,False,125
AUA-20260204-191953-258,21,2,low,high,flanker,1,Intuitive,0,0.044199814470916,1.0,3048,False,125
AUA-20260204-191953-258,22,2,low,high,reverse-stroop,1,Intuitive,0,-0.1110200907374401,0.9709505944546686,2761,False,125
AUA-20260204-191953-258,23,2,low,high,stroop,1,Intuitive,0,-0.1250818243103225,0.9709505944546686,2735,False,125
AUA-20260204-191953-258,24,2,low,high,reverse-stroop,1,Intuitive,0,-0.5956090630952349,0.9709505944546686,1865,False,125
AUA-20260204-191953-258,25,2,low,high,number-word,1,Intuitive,0,-0.3089660325710929,0.9709505944546686,2395,False,125
AUA-20260204-191953-258,26,2,low,high,gamble,1,Intuitive,0,-0.0634265309522995,1.0,2849,False,159
AUA-20260204-191953-258,27,2,low,high,gamble,1,Intuitive,0,0.4357650108850269,1.0,3772,False,115
AUA-20260204-191953-258,28,2,low,high,number-word,1,Intuitive,0,0.2318698740782316,1.0,3395,False,5
AUA-20260204-191953-258,29,2,low,high,number-word,1,Intuitive,0,0.1366827545079505,0.9709505944546686,3219,False,5
AUA-20260204-191953-258,30,2,low,high,stroop,1,Intuitive,0,0.0052596291921646,0.9709505944546686,2976,False,125
AUA-20260204-191953-258,31,3,high,low,reverse-stroop,1,Intuitive,0,-0.3587229359828308,1.0,2303,False,125
AUA-20260204-191953-258,32,3,high,low,number-word,1,Intuitive,0,-0.1088567471108428,0.9709505944546686,2765,False,125
AUA-20260204-191953-258,33,3,high,low,numerical-stroop,1,Intuitive,0,-0.6767344490926336,0.9709505944546686,1715,False,125
AUA-20260204-191953-258,34,3,high,low,reverse-stroop,1,Intuitive,0,-0.7264913525043715,0.8812908992306927,1623,False,125
AUA-20260204-191953-258,35,3,high,low,gamble,1,Intuitive,0,-0.6377942638138823,0.8812908992306927,1787,False,105
AUA-20260204-191953-258,36,3,high,low,flanker,1,Intuitive,0,0.1074776155488869,0.8812908992306927,3165,False,125
AUA-20260204-191953-258,37,3,high,low,number-word,1,Intuitive,0,-0.2278406465736942,0.8812908992306927,2545,False,125
AUA-20260204-191953-258,38,3,high,low,numerical-stroop,1,Intuitive,0,-0.7070212598649958,0.9709505944546686,1659,False,125
AUA-20260204-191953-258,39,3,high,low,flanker,1,Intuitive,0,-0.3479062178498442,1.0,2323,False,125
AUA-20260204-191953-258,40,3,high,low,numerical-stroop,1,Intuitive,0,-0.3203235866107287,0.9709505944546686,2374,False,125
AUA-20260204-191953-258,41,4,high,high,gamble,1,Intuitive,0,-1.1369858056512088,0.8812908992306927,864,False,125
AUA-20260204-191953-258,42,4,high,high,number-word,1,Intuitive,0,0.4119682309924566,0.9709505944546686,3728,False,125
AUA-20260204-191953-258,43,4,high,high,reverse-stroop,1,Intuitive,0,-0.1256226602169719,0.9709505944546686,2734,False,125
AUA-20260204-191953-258,44,4,high,high,gamble,1,Intuitive,0,-1.0612687787203032,0.9709505944546686,1004,False,125
AUA-20260204-191953-258,45,4,high,high,gamble,1,Intuitive,0,0.6688652866508858,1.0,4203,False,145
AUA-20260204-191953-258,46,4,high,high,crt,1,Intuitive,0,1.2881223997643625,0.9709505944546686,5348,False,145
AUA-20260204-191953-258,47,4,high,high,stroop,1,Intuitive,0,-0.3738663413690118,0.9709505944546686,2275,False,125
AUA-20260204-191953-258,48,4,high,high,stroop,1,Intuitive,0,-0.3776521927155571,0.9709505944546686,2268,False,125
AUA-20260204-191953-258,49,4,high,high,stroop,1,Intuitive,0,-0.1797062508819043,1.0,2634,False,125
AUA-20260204-191953-258,50,4,high,high,reverse-stroop,1,Intuitive,0,2.1815833175490464,1.0,7000,True,-10
AUA-20260205-144144-205,11,1,low,low,flanker,0,Analytical,0,-0.597758029969822,3.4661976109059574e-09,1813,False,125
AUA-20260205-144144-205,12,1,low,low,flanker,1,Intuitive,1,-0.129605947143056,3.4661976109059574e-09,2734,False,125
AUA-20260205-144144-205,13,1,low,low,flanker,1,Intuitive,0,-0.1585795288163738,0.9182958340544896,2677,False,125
AUA-20260205-144144-205,14,1,low,low,crt,1,Intuitive,0,0.9058183663402471,0.8112781244591328,4771,False,145
AUA-20260205-144144-205,15,1,low,low,stroop,0,Analytical,1,4.580380154347512,0.7219280948873623,12000,True,-10
AUA-20260205-144144-205,16,1,low,low,gamble,1,Intuitive,1,1.2773918435892873,0.6500224216483541,5502,False,150
AUA-20260205-144144-205,17,1,low,low,gamble,1,Intuitive,0,0.9368251818152012,0.863120568566631,4832,False,125
AUA-20260205-144144-205,18,1,low,low,numerical-stroop,1,Intuitive,0,-0.1377388823496013,0.8112781244591328,2718,False,125
AUA-20260205-144144-205,19,1,low,low,number-word,0,Analytical,1,0.8412631931382936,0.7642045065086203,4644,False,125
AUA-20260205-144144-205,20,1,low,low,gamble,1,Intuitive,1,0.2501004653125294,0.7219280948873623,3481,False,155
AUA-20260205-144144-205,21,2,low,high,crt,1,Intuitive,0,-0.2902314174723264,0.8812908992306927,2418,False,145
AUA-20260205-144144-205,22,2,low,high,flanker,1,Intuitive,0,-0.3578364413767345,0.9709505944546686,2285,False,125
AUA-20260205-144144-205,23,2,low,high,stroop,1,Intuitive,0,-0.3715607695377798,0.9709505944546686,2258,False,125
AUA-20260205-144144-205,24,2,low,high,gamble,1,Intuitive,0,0.3161805638657102,1.0,3611,False,125
AUA-20260205-144144-205,25,2,low,high,gamble,1,Intuitive,0,0.0172951950251691,1.0,3023,False,159
AUA-20260205-144144-205,26,2,low,high,gamble,1,Intuitive,0,-0.2897231090219173,0.9709505944546686,2419,False,150
AUA-20260205-144144-205,27,2,low,high,flanker,1,Intuitive,0,0.7614587664240674,1.0,4487,False,125
AUA-20260205-144144-205,28,2,low,high,stroop,1,Intuitive,0,0.5723680228718884,1.0,4115,False,125
AUA-20260205-144144-205,29,2,low,high,gamble,1,Intuitive,0,1.7277531306517353,1.0,6388,False,105
AUA-20260205-144144-205,30,2,low,high,flanker,1,Intuitive,0,-0.500671115941687,1.0,2004,False,125
AUA-20260205-144144-205,31,3,high,low,stroop,1,Intuitive,0,-0.6618048947213665,0.9709505944546686,1687,False,125
AUA-20260205-144144-205,32,3,high,low,stroop,1,Intuitive,0,0.1896117597138484,0.9709505944546686,3362,False,125
AUA-20260205-144144-205,33,3,high,low,stroop,1,Intuitive,0,0.1718209639495305,0.9709505944546686,3327,False,125
AUA-20260205-144144-205,34,3,high,low,gamble,1,Intuitive,0,0.2643331019239837,0.9709505944546686,3509,False,159
AUA-20260205-144144-205,35,3,high,low,stroop,1,Intuitive,0,-0.4727141511691874,0.9709505944546686,2059,False,125
AUA-20260205-144144-205,36,3,high,low,stroop,1,Intuitive,0,-0.5692927567469133,0.8812908992306927,1869,False,125
AUA-20260205-144144-205,37,3,high,low,gamble,1,Intuitive,0,0.3863271300221638,0.9709505944546686,3749,False,159
AUA-20260205-144144-205,38,3,high,low,numerical-stroop,1,Intuitive,0,-1.4176595604796738,0.9709505944546686,200,False,125
AUA-20260205-144144-205,39,3,high,low,crt,1,Intuitive,0,-0.8819024537484997,1.0,1254,False,145
AUA-20260205-144144-205,40,3,high,low,reverse-stroop,1,Intuitive,0,0.1047242484955314,0.9709505944546686,3195,False,125
AUA-20260205-144144-205,41,4,high,high,numerical-stroop,1,Intuitive,0,-0.8798692199468634,0.8812908992306927,1258,False,125
AUA-20260205-144144-205,42,4,high,high,reverse-stroop,1,Intuitive,0,-1.0089795663507706,0.9709505944546686,1004,False,125
AUA-20260205-144144-205,43,4,high,high,flanker,1,Intuitive,0,-0.8117558875920462,1.0,1392,False,125
AUA-20260205-144144-205,44,4,high,high,gamble,1,Intuitive,0,-0.3863017145996432,1.0,2229,False,115
AUA-20260205-144144-205,45,4,high,high,numerical-stroop,1,Intuitive,0,-0.6435057905066395,0.9709505944546686,1723,False,125
AUA-20260205-144144-205,46,4,high,high,gamble,1,Intuitive,0,-0.7482173312909107,0.9709505944546686,1517,False,125
AUA-20260205-144144-205,47,4,high,high,number-word,1,Intuitive,0,-0.1672207724733282,1.0,2660,False,125
AUA-20260205-144144-205,48,4,high,high,numerical-stroop,1,Intuitive,0,-0.5301530060654139,1.0,1946,False,125
AUA-20260205-144144-205,49,4,high,high,numerical-stroop,1,Intuitive,0,-0.5052458919953687,0.9709505944546686,1995,False,125
AUA-20260205-144144-205,50,4,high,high,stroop,1,Intuitive,0,-0.7853238481707738,0.9709505944546686,1444,False,125
AUA-20260206-093703-450,11,1,low,low,numerical-stroop,0,Analytical,0,-0.4384212109274394,3.4661976109059574e-09,1734,False,125
AUA-20260206-093703-450,12,1,low,low,number-word,0,Analytical,0,0.1340573007411308,3.4661976109059574e-09,2481,False,125
AUA-20260206-093703-450,13,1,low,low,numerical-stroop,0,Analytical,0,-0.9273653748424968,3.4661976109059574e-09,1096,False,125
AUA-20260206-093703-450,14,1,low,low,flanker,0,Analytical,0,0.4628301006150487,0.8112781244591328,2910,False,125
AUA-20260206-093703-450,15,1,low,low,flanker,0,Analytical,0,0.2551437864755808,0.7219280948873623,2639,False,125
AUA-20260206-093703-450,16,1,low,low,gamble,0,Analytical,0,0.3271825817859497,0.9182958340544896,2733,False,145
AUA-20260206-093703-450,17,1,low,low,stroop,0,Analytical,0,0.376996642372907,0.9852281360342516,2798,False,125
AUA-20260206-093703-450,18,1,low,low,stroop,0,Analytical,0,-0.2269030459735901,1.0,2010,False,125
AUA-20260206-093703-450,19,1,low,low,stroop,0,Analytical,0,1.3364920862939913,0.9910760598382222,4050,False,125
AUA-20260206-093703-450,20,1,low,low,numerical-stroop,0,Analytical,0,-0.4483840230448308,0.9709505944546686,1721,False,125
AUA-20260206-093703-450,21,2,low,high,stroop,0,Analytical,0,0.21835801865752,1.0,2591,False,125
AUA-20260206-093703-450,22,2,low,high,gamble,0,Analytical,0,-0.2498941508598781,1.0,1980,False,115
AUA-20260206-093703-450,23,2,low,high,gamble,0,Analytical,0,1.5219536657100474,1.0,4292,False,155
AUA-20260206-093703-450,24,2,low,high,flanker,0,Analytical,0,-0.812409850411057,0.9709505944546686,1246,False,125
AUA-20260206-093703-450,25,2,low,high,crt,0,Analytical,0,0.8751372482424795,1.0,3448,False,145
AUA-20260206-093703-450,26,2,low,high,flanker,0,Analytical,0,1.5457111407592117,0.9709505944546686,4323,False,125
AUA-20260206-093703-450,27,2,low,high,reverse-stroop,0,Analytical,0,0.5249060838080262,0.8812908992306927,2991,False,125
AUA-20260206-093703-450,28,2,low,high,stroop,0,Analytical,0,-0.0322450246030187,0.7219280948873623,2264,False,125
AUA-20260206-093703-450,29,2,low,high,stroop,0,Analytical,0,0.1263935991123682,0.7219280948873623,2471,False,125
AUA-20260206-093703-450,30,2,low,high,reverse-stroop,0,Analytical,0,0.0765795385254109,0.8812908992306927,2406,False,125
AUA-20260206-093703-450,31,3,high,low,stroop,0,Analytical,0,-0.111181151379274,0.8812908992306927,2161,False,125
AUA-20260206-093703-450,32,3,high,low,numerical-stroop,1,Intuitive,1,-1.5197695107458498,0.9709505944546686,323,False,5
AUA-20260206-093703-450,33,3,high,low,stroop,1,Intuitive,0,0.177740400025078,0.9709505944546686,2538,False,125
AUA-20260206-093703-450,34,3,high,low,gamble,1,Intuitive,0,0.1087670853662141,1.0,2448,False,145
AUA-20260206-093703-450,35,3,high,low,gamble,1,Intuitive,0,0.2114606871916336,1.0,2582,False,155
AUA-20260206-093703-450,36,3,high,low,numerical-stroop,1,Intuitive,0,-0.6008916854572076,1.0,1522,False,5
AUA-20260206-093703-450,37,3,high,low,gamble,1,Intuitive,0,3.597284066778974,1.0,7000,True,-10
AUA-20260206-093703-450,38,3,high,low,numerical-stroop,1,Intuitive,0,-0.7817550438960063,0.9709505944546686,1286,False,125
AUA-20260206-093703-450,39,3,high,low,numerical-stroop,1,Intuitive,0,-0.010020289879607,0.8812908992306927,2293,False,125
AUA-20260206-093703-450,40,3,high,low,numerical-stroop,1,Intuitive,0,-0.272885255746166,0.9709505944546686,1950,False,125
AUA-20260206-093703-450,41,4,high,high,stroop,1,Intuitive,0,-0.9994041701528656,1.0,1002,False,125
AUA-20260206-093703-450,42,4,high,high,stroop,1,Intuitive,0,-1.115892434910058,0.9709505944546686,850,False,125
AUA-20260206-093703-450,43,4,high,high,reverse-stroop,1,Intuitive,0,-1.1978940423378184,0.9709505944546686,743,False,125
AUA-20260206-093703-450,44,4,high,high,stroop,1,Intuitive,0,-0.9580201813575472,0.8812908992306927,1056,False,125
AUA-20260206-093703-450,45,4,high,high,gamble,1,Intuitive,0,2.1143578016134006,0.8812908992306927,5065,False,150
AUA-20260206-093703-450,46,4,high,high,flanker,1,Intuitive,0,-0.3801770785488432,0.9709505944546686,1810,False,125
AUA-20260206-093703-450,47,4,high,high,flanker,0,Analytical,1,-0.766427640638481,1.0,1306,False,125
AUA-20260206-093703-450,48,4,high,high,number-word,0,Analytical,0,-0.5280865199839624,1.0,1617,False,125
AUA-20260206-093703-450,49,4,high,high,crt,0,Analytical,0,-0.0835918255157285,0.9709505944546686,2197,False,145
AUA-20260206-093703-450,50,4,high,high,numerical-stroop,0,Analytical,0,-1.5297323228632411,0.9709505944546686,310,False,125
AUA-20260206-125824-221,11,1,low,low,numerical-stroop,0,Analytical,0,0.3989020669201749,3.4661976109059574e-09,3789,False,125
AUA-20260206-125824-221,12,1,low,low,stroop,1,Intuitive,1,-0.1653058400050622,1.0,2912,False,125
AUA-20260206-125824-221,13,1,low,low,flanker,1,Intuitive,0,-0.2952602267768957,0.9182958340544896,2710,False,125
AUA-20260206-125824-221,14,1,low,low,number-word,1,Intuitive,0,0.972116713522668,1.0,4680,False,125
AUA-20260206-125824-221,15,1,low,low,number-word,1,Intuitive,0,0.6221405432064433,0.9709505944546686,4136,False,125
AUA-20260206-125824-221,16,1,low,low,gamble,1,Intuitive,0,-0.9688356869259532,1.0,1663,False,135
AUA-20260206-125824-221,17,1,low,low,numerical-stroop,1,Intuitive,0,-1.450052921110762,0.9852281360342516,915,False,125
AUA-20260206-125824-221,18,1,low,low,gamble,1,Intuitive,0,1.7241794765735257,0.954434002924965,5849,False,145
AUA-20260206-125824-221,19,1,low,low,gamble,1,Intuitive,0,1.7859399772175653,0.9910760598382222,5945,False,145
AUA-20260206-125824-221,20,1,low,low,gamble,1,Intuitive,0,1.101427761746126,0.9709505944546686,4881,False,125
AUA-20260206-125824-221,21,2,low,high,gamble,1,Intuitive,0,0.9309430464266416,1.0,4616,False,159
AUA-20260206-125824-221,22,2,low,high,flanker,1,Intuitive,0,-0.2856101485512645,0.9709505944546686,2725,False,5
AUA-20260206-125824-221,23,2,low,high,number-word,1,Intuitive,0,0.3982587283717995,0.9709505944546686,3788,False,125
AUA-20260206-125824-221,24,2,low,high,reverse-stroop,1,Intuitive,0,-0.1672358556501885,0.8812908992306927,2909,False,125
AUA-20260206-125824-221,25,2,low,high,stroop,0,Analytical,1,-0.6355863188674892,0.7219280948873623,2181,False,125
AUA-20260206-125824-221,26,2,low,high,stroop,1,Intuitive,1,0.5693867822396593,0.8812908992306927,4054,False,125
AUA-20260206-125824-221,27,2,low,high,stroop,1,Intuitive,0,0.3101213472443679,0.8812908992306927,3651,False,125
AUA-20260206-125824-221,28,2,low,high,gamble,1,Intuitive,0,1.5820016573825595,0.9709505944546686,5628,False,105
AUA-20260206-125824-221,29,2,low,high,reverse-stroop,1,Intuitive,0,-0.4104178269360946,0.9709505944546686,2531,False,125
AUA-20260206-125824-221,30,2,low,high,stroop,1,Intuitive,0,0.5185630369180018,1.0,3975,False,125
AUA-20260206-125824-221,31,3,high,low,flanker,1,Intuitive,0,-0.2836801329061382,0.9709505944546686,2728,False,5
AUA-20260206-125824-221,32,3,high,low,numerical-stroop,0,Analytical,1,2.464662145753626,0.9709505944546686,7000,True,-10
AUA-20260206-125824-221,33,3,high,low,numerical-stroop,1,Intuitive,1,-1.5227501770771836,0.9709505944546686,802,False,125
AUA-20260206-125824-221,34,3,high,low,stroop,1,Intuitive,0,-0.3248538000021647,0.9709505944546686,2664,False,125
AUA-20260206-125824-221,35,3,high,low,numerical-stroop,1,Intuitive,0,-0.4458014470967423,0.9709505944546686,2476,False,125
AUA-20260206-125824-221,36,3,high,low,stroop,1,Intuitive,0,0.2232706432136872,0.8812908992306927,3516,False,125
AUA-20260206-125824-221,37,3,high,low,crt,1,Intuitive,0,-0.1376422824249195,0.8812908992306927,2955,False,5
AUA-20260206-125824-221,38,3,high,low,stroop,1,Intuitive,0,-0.1209154801671587,0.8812908992306927,2981,False,125
AUA-20260206-125824-221,39,3,high,low,flanker,1,Intuitive,0,0.2155505806331822,0.7219280948873623,3504,False,125
AUA-20260206-125824-221,40,3,high,low,number-word,1,Intuitive,0,-1.9100399831991823,0.7219280948873623,200,False,125
AUA-20260206-125824-221,41,4,high,high,number-word,1,Intuitive,0,0.0753027770873422,0.8812908992306927,3286,False,5
AUA-20260206-125824-221,42,4,high,high,flanker,1,Intuitive,0,-1.2557646795013873,0.8812908992306927,1217,False,125
AUA-20260206-125824-221,43,4,high,high,crt,1,Intuitive,0,1.0898476678753686,0.8812908992306927,4863,False,145
AUA-20260206-125824-221,44,4,high,high,gamble,1,Intuitive,0,-1.2480446169208823,0.8812908992306927,1229,False,150
AUA-20260206-125824-221,45,4,high,high,reverse-stroop,1,Intuitive,0,-0.5519523075786854,0.9709505944546686,2311,False,125
AUA-20260206-125824-221,46,4,high,high,number-word,1,Intuitive,0,-1.33811201369344,0.9709505944546686,1089,False,125
AUA-20260206-125824-221,47,4,high,high,crt,1,Intuitive,0,0.8093520607836884,0.9709505944546686,4427,False,145
AUA-20260206-125824-221,48,4,high,high,gamble,1,Intuitive,0,-0.747527226284811,0.9709505944546686,2007,False,145
AUA-20260206-125824-221,49,4,high,high,gamble,1,Intuitive,0,-0.163375824359936,1.0,2915,False,155
AUA-20260206-125824-221,50,4,high,high,gamble,1,Intuitive,0,-1.3632022170800813,0.9709505944546686,1050,False,155
AUA-20260206-132059-457,11,1,low,low,number-word,0,Analytical,0,0.7626569085142056,3.466197873826607e-09,3347,False,125
AUA-20260206-132059-457,12,1,low,low,stroop,1,Intuitive,1,-0.188923192108384,1.0,2066,False,125
AUA-20260206-132059-457,13,1,low,low,reverse-stroop,1,Intuitive,0,-0.0143554140862852,0.9182958340544896,2301,False,125
AUA-20260206-132059-457,14,1,low,low,flanker,1,Intuitive,0,0.2664387139662822,1.0,2679,False,125
AUA-20260206-132059-457,15,1,low,low,reverse-stroop,1,Intuitive,0,0.2055257020606988,0.9709505944546686,2597,False,125
AUA-20260206-132059-457,16,1,low,low,gamble,1,Intuitive,0,-0.5781721950172342,1.0,1542,False,159
AUA-20260206-132059-457,17,1,low,low,gamble,1,Intuitive,0,0.876311674630721,0.9852281360342516,3500,False,115
AUA-20260206-132059-457,18,1,low,low,gamble,1,Intuitive,0,0.1616980471530229,1.0,2538,False,150
AUA-20260206-132059-457,19,1,low,low,stroop,1,Intuitive,0,-0.8218242426395678,0.9910760598382222,1214,False,125
AUA-20260206-132059-457,20,1,low,low,number-word,1,Intuitive,0,1.6399528482763277,0.9709505944546686,4528,False,125
AUA-20260206-132059-457,21,2,low,high,stroop,1,Intuitive,0,0.007929834171855,0.8812908992306927,2331,False,125
AUA-20260206-132059-457,22,2,low,high,numerical-stroop,1,Intuitive,0,-0.3441770883067613,0.9709505944546686,1857,False,5
AUA-20260206-132059-457,23,2,low,high,numerical-stroop,1,Intuitive,0,0.0458147562106935,0.8812908992306927,2382,False,125
AUA-20260206-132059-457,24,2,low,high,stroop,1,Intuitive,0,1.1459631785542184,0.8812908992306927,3863,False,125
AUA-20260206-132059-457,25,2,low,high,flanker,1,Intuitive,0,0.1446126901551154,0.8812908992306927,2515,False,125
AUA-20260206-132059-457,26,2,low,high,gamble,1,Intuitive,0,3.286832694552894,0.8812908992306927,6745,False,105
AUA-20260206-132059-457,27,2,low,high,stroop,1,Intuitive,0,0.4031215699495425,0.7219280948873623,2863,False,125
AUA-20260206-132059-457,28,2,low,high,numerical-stroop,1,Intuitive,0,-1.1449603423826018,0.8812908992306927,779,False,125
AUA-20260206-132059-457,29,2,low,high,gamble,1,Intuitive,0,1.1979620911565456,0.9709505944546686,3933,False,150
AUA-20260206-132059-457,30,2,low,high,numerical-stroop,1,Intuitive,0,0.010158358997669,1.0,2334,False,125
AUA-20260206-132059-457,31,3,high,low,number-word,1,Intuitive,0,0.9765952917923524,0.9709505944546686,3635,False,125
AUA-20260206-132059-457,32,3,high,low,numerical-stroop,1,Intuitive,0,0.3117520520911674,0.9709505944546686,2740,False,125
AUA-20260206-132059-457,33,3,high,low,stroop,1,Intuitive,0,-1.575065633764709,0.9709505944546686,200,False,125
AUA-20260206-132059-457,34,3,high,low,reverse-stroop,1,Intuitive,0,-0.108696298379079,0.8812908992306927,2174,False,125
AUA-20260206-132059-457,35,3,high,low,flanker,1,Intuitive,0,-0.8953655618914307,0.8812908992306927,1115,False,125
AUA-20260206-132059-457,36,3,high,low,stroop,0,Analytical,1,0.3919789458204724,0.7219280948873623,2848,False,125
AUA-20260206-132059-457,37,3,high,low,gamble,0,Analytical,0,0.938710369753514,0.7219280948873623,3584,False,155
AUA-20260206-132059-457,38,3,high,low,crt,1,Intuitive,1,1.7409793070465638,0.8812908992306927,4664,False,5
AUA-20260206-132059-457,39,3,high,low,numerical-stroop,1,Intuitive,0,-1.3514703095747016,0.8812908992306927,501,False,125
AUA-20260206-132059-457,40,3,high,low,gamble,1,Intuitive,0,-0.2156654900181523,0.8812908992306927,2030,False,159
AUA-20260206-132059-457,41,4,high,high,numerical-stroop,1,Intuitive,0,-0.2230939061041991,0.9709505944546686,2020,False,125
AUA-20260206-132059-457,42,4,high,high,numerical-stroop,1,Intuitive,0,-1.3626129337037718,1.0,486,False,125
AUA-20260206-132059-457,43,4,high,high,number-word,1,Intuitive,0,-0.1131533480307071,1.0,2168,False,125
AUA-20260206-132059-457,44,4,high,high,number-word,1,Intuitive,0,-0.1703521518932671,1.0,2091,False,125
AUA-20260206-132059-457,45,4,high,high,reverse-stroop,1,Intuitive,0,-1.575065633764709,1.0,200,False,125
AUA-20260206-132059-457,46,4,high,high,gamble,1,Intuitive,0,-1.575065633764709,0.9709505944546686,200,False,155
AUA-20260206-132059-457,47,4,high,high,numerical-stroop,1,Intuitive,0,-0.4994309845051385,1.0,1648,False,125
AUA-20260206-132059-457,48,4,high,high,numerical-stroop,1,Intuitive,0,-0.8359382332030567,0.9709505944546686,1195,False,125
AUA-20260206-132059-457,49,4,high,high,flanker,1,Intuitive,0,-0.6064001761442118,0.9709505944546686,1504,False,125
AUA-20260206-132059-457,50,4,high,high,number-word,1,Intuitive,0,-0.3152062655711789,1.0,1896,False,125
AUA-20260207-130703-313,11,1,low,low,reverse-stroop,1,Intuitive,0,-0.1589000414125207,3.4661976109059574e-09,2606,False,125
AUA-20260207-130703-313,12,1,low,low,flanker,1,Intuitive,0,-0.0147510026693174,1.0,2799,False,125
AUA-20260207-130703-313,13,1,low,low,flanker,1,Intuitive,0,-0.4793142259764285,0.9182958340544896,2177,False,125
AUA-20260207-130703-313,14,1,low,low,gamble,1,Intuitive,0,0.6716374253358836,1.0,3718,False,115
AUA-20260207-130703-313,15,1,low,low,reverse-stroop,1,Intuitive,0,-1.0954953501377895,0.9709505944546686,1352,False,125
AUA-20260207-130703-313,16,1,low,low,gamble,1,Intuitive,0,-0.1118462101129258,0.9182958340544896,2669,False,115
AUA-20260207-130703-313,17,1,low,low,reverse-stroop,1,Intuitive,0,0.6858282633468725,0.863120568566631,3737,False,125
AUA-20260207-130703-313,18,1,low,low,number-word,1,Intuitive,0,1.3774448948298064,0.8112781244591328,4663,False,125
AUA-20260207-130703-313,19,1,low,low,stroop,1,Intuitive,0,0.0875724082520237,0.7642045065086203,2936,False,125
AUA-20260207-130703-313,20,1,low,low,flanker,1,Intuitive,0,0.2108086330842959,0.8812908992306927,3101,False,125
AUA-20260207-130703-313,21,2,low,high,crt,0,Analytical,1,1.77702901777081,0.9709505944546686,5198,False,145
AUA-20260207-130703-313,22,2,low,high,number-word,1,Intuitive,1,0.4692312621265153,0.9709505944546686,3447,False,125
AUA-20260207-130703-313,23,2,low,high,gamble,1,Intuitive,0,-0.3232150078555503,1.0,2386,False,145
AUA-20260207-130703-313,24,2,low,high,reverse-stroop,1,Intuitive,0,-0.1260370481239147,1.0,2650,False,125
AUA-20260207-130703-313,25,2,low,high,numerical-stroop,1,Intuitive,0,-0.6025504508087007,1.0,2012,False,125
AUA-20260207-130703-313,26,2,low,high,gamble,0,Analytical,1,1.0943750208211325,1.0,4284,False,135
AUA-20260207-130703-313,27,2,low,high,numerical-stroop,1,Intuitive,1,-1.2911795374472157,1.0,1090,False,125
AUA-20260207-130703-313,28,2,low,high,gamble,0,Analytical,1,2.29238050343304,0.9709505944546686,5888,False,115
AUA-20260207-130703-313,29,2,low,high,flanker,1,Intuitive,1,-0.9319272699058646,0.9709505944546686,1571,False,125
AUA-20260207-130703-313,30,2,low,high,crt,1,Intuitive,0,-0.2657047696004899,1.0,2463,False,145
AUA-20260207-130703-313,31,3,high,low,gamble,1,Intuitive,0,-0.4598951844877068,1.0,2203,False,135
AUA-20260207-130703-313,32,3,high,low,number-word,1,Intuitive,0,-0.5741687747867228,1.0,2050,False,125
AUA-20260207-130703-313,33,3,high,low,gamble,1,Intuitive,0,-0.4516794361655553,0.9709505944546686,2214,False,135
AUA-20260207-130703-313,34,3,high,low,gamble,1,Intuitive,0,-1.0260349325050544,0.9709505944546686,1445,False,159
AUA-20260207-130703-313,35,3,high,low,crt,0,Analytical,1,1.929393804836165,1.0,5402,False,145
AUA-20260207-130703-313,36,3,high,low,stroop,1,Intuitive,1,-1.0155785255495888,1.0,1459,False,125
AUA-20260207-130703-313,37,3,high,low,number-word,1,Intuitive,0,0.3803518030050583,1.0,3328,False,5
AUA-20260207-130703-313,38,3,high,low,reverse-stroop,1,Intuitive,0,-0.3329245285999112,1.0,2373,False,125
AUA-20260207-130703-313,39,3,high,low,flanker,1,Intuitive,0,-1.4293534865015816,1.0,905,False,125
AUA-20260207-130703-313,40,3,high,low,number-word,1,Intuitive,0,-0.4696047052320676,1.0,2190,False,125
AUA-20260207-130703-313,41,4,high,high,gamble,1,Intuitive,0,-0.4942519501985221,0.9709505944546686,2157,False,125
AUA-20260207-130703-313,42,4,high,high,flanker,1,Intuitive,0,-0.4128413531881119,0.8812908992306927,2266,False,125
AUA-20260207-130703-313,43,4,high,high,numerical-stroop,1,Intuitive,0,-0.6466167372638768,0.8812908992306927,1953,False,125
AUA-20260207-130703-313,44,4,high,high,crt,1,Intuitive,0,0.6245835940362887,0.8812908992306927,3655,False,145
AUA-20260207-130703-313,45,4,high,high,reverse-stroop,1,Intuitive,0,-0.0072821405582706,0.7219280948873623,2809,False,125
AUA-20260207-130703-313,46,4,high,high,gamble,1,Intuitive,0,-0.5405588952870123,0.7219280948873623,2095,False,125
AUA-20260207-130703-313,47,4,high,high,stroop,0,Analytical,1,3.122917970181444,0.7219280948873623,7000,True,-10
AUA-20260207-130703-313,48,4,high,high,numerical-stroop,1,Intuitive,1,0.1092321083740594,0.4689955935892812,2965,False,125
AUA-20260207-130703-313,49,4,high,high,flanker,1,Intuitive,0,-1.0648730154824977,0.7219280948873623,1393,False,125
AUA-20260207-130703-313,50,4,high,high,crt,1,Intuitive,0,-0.5062021295761969,0.7219280948873623,2141,False,145
AUA-20260207-165034-802,11,1,low,low,gamble,0,Analytical,0,2.7447567616767685,3.466197873826607e-09,6905,False,105
AUA-20260207-165034-802,12,1,low,low,stroop,1,Intuitive,1,0.3211872464332946,1.0,3135,False,125
AUA-20260207-165034-802,13,1,low,low,gamble,1,Intuitive,0,0.2221873245904577,0.9182958340544896,2981,False,105
AUA-20260207-165034-802,14,1,low,low,flanker,1,Intuitive,0,0.0209731977280685,1.0,2668,False,125
AUA-20260207-165034-802,15,1,low,low,numerical-stroop,1,Intuitive,0,-0.4913835406403794,0.9709505944546686,1871,False,125
AUA-20260207-165034-802,16,1,low,low,reverse-stroop,1,Intuitive,0,-0.2509551590220613,1.0,2245,False,125
AUA-20260207-165034-802,17,1,low,low,reverse-stroop,1,Intuitive,0,-0.2683122881763249,0.9852281360342516,2218,False,125
AUA-20260207-165034-802,18,1,low,low,flanker,1,Intuitive,0,0.9814010109306548,1.0,4162,False,125
AUA-20260207-165034-802,19,1,low,low,numerical-stroop,1,Intuitive,0,-1.1721687174687188,0.9910760598382222,812,False,125
AUA-20260207-165034-802,20,1,low,low,reverse-stroop,1,Intuitive,0,0.1000445638752694,1.0,2791,False,125
AUA-20260207-165034-802,21,2,low,high,reverse-stroop,1,Intuitive,0,0.1804016432931564,0.9709505944546686,2916,False,125
AUA-20260207-165034-802,22,2,low,high,flanker,1,Intuitive,0,-0.7093119400216892,1.0,1532,False,5
AUA-20260207-165034-802,23,2,low,high,reverse-stroop,1,Intuitive,0,-0.388526478985484,0.9709505944546686,2031,False,125
AUA-20260207-165034-802,24,2,low,high,reverse-stroop,1,Intuitive,0,-0.4200264541172957,0.9709505944546686,1982,False,125
AUA-20260207-165034-802,25,2,low,high,reverse-stroop,1,Intuitive,0,0.3256872428806963,1.0,3142,False,125
AUA-20260207-165034-802,26,2,low,high,stroop,1,Intuitive,0,-0.1487409540025089,1.0,2404,False,125
AUA-20260207-165034-802,27,2,low,high,numerical-stroop,1,Intuitive,0,-0.93366890575643,1.0,1183,False,125
AUA-20260207-165034-802,28,2,low,high,numerical-stroop,1,Intuitive,0,-0.2747408545297559,1.0,2208,False,125
AUA-20260207-165034-802,29,2,low,high,numerical-stroop,1,Intuitive,0,-0.1930980618411826,0.9709505944546686,2335,False,125
AUA-20260207-165034-802,30,2,low,high,numerical-stroop,1,Intuitive,0,-0.076098154208739,1.0,2517,False,125
AUA-20260207-165034-802,31,3,high,low,gamble,1,Intuitive,0,-0.0587410250544754,0.9709505944546686,2544,False,145
AUA-20260207-165034-802,32,3,high,low,gamble,1,Intuitive,0,0.7191155037106715,0.9709505944546686,3754,False,159
AUA-20260207-165034-802,33,3,high,low,gamble,1,Intuitive,0,-0.514526379512731,1.0,1835,False,105
AUA-20260207-165034-802,34,3,high,low,number-word,1,Intuitive,0,0.004258925209148,0.9709505944546686,2642,False,125
AUA-20260207-165034-802,35,3,high,low,crt,1,Intuitive,0,0.9981152834495752,0.9709505944546686,4188,False,145
AUA-20260207-165034-802,36,3,high,low,gamble,1,Intuitive,0,-0.0105267774037432,0.9709505944546686,2619,False,155
AUA-20260207-165034-802,37,3,high,low,reverse-stroop,1,Intuitive,0,-1.5655969782986938,0.9709505944546686,200,False,125
AUA-20260207-165034-802,38,3,high,low,stroop,1,Intuitive,0,-0.9028117872599613,0.8812908992306927,1231,False,125
AUA-20260207-165034-802,39,3,high,low,flanker,1,Intuitive,0,-1.3367400161165517,0.9709505944546686,556,False,5
AUA-20260207-165034-802,40,3,high,low,number-word,1,Intuitive,0,1.0437581045589353,0.8812908992306927,4259,False,125
AUA-20260207-165034-802,41,4,high,high,numerical-stroop,1,Intuitive,0,-0.6199548677089988,0.7219280948873623,1671,False,125
AUA-20260207-165034-802,42,4,high,high,number-word,1,Intuitive,0,0.1366873920898259,0.7219280948873623,2848,False,125
AUA-20260207-165034-802,43,4,high,high,flanker,1,Intuitive,0,-0.0966695665397181,0.8812908992306927,2485,False,5
AUA-20260207-165034-802,44,4,high,high,stroop,1,Intuitive,0,-1.0712402257198526,0.8812908992306927,969,False,125
AUA-20260207-165034-802,45,4,high,high,stroop,1,Intuitive,0,-0.2432408793979441,0.9709505944546686,2257,False,125
AUA-20260207-165034-802,46,4,high,high,flanker,0,Analytical,1,2.805828142034363,0.9709505944546686,7000,True,-10
AUA-20260207-165034-802,47,4,high,high,flanker,1,Intuitive,1,-1.0686687991784802,0.9709505944546686,973,False,125
AUA-20260207-165034-802,48,4,high,high,gamble,1,Intuitive,0,-0.3184551057330864,1.0,2140,False,155
AUA-20260207-165034-802,49,4,high,high,crt,0,Analytical,1,2.805828142034363,0.9709505944546686,7000,True,-10
AUA-20260207-165034-802,50,4,high,high,gamble,1,Intuitive,1,-0.2760265678004421,0.9709505944546686,2206,False,159
AUA-20260207-193205-764,11,1,low,low,reverse-stroop,0,Analytical,0,0.3469255115891196,3.466197873826607e-09,3130,False,125
AUA-20260207-193205-764,12,1,low,low,stroop,1,Intuitive,1,-0.7123315446873278,1.0,1442,False,125
AUA-20260207-193205-764,13,1,low,low,flanker,1,Intuitive,0,0.1498836184192117,0.9182958340544896,2816,False,125
AUA-20260207-193205-764,14,1,low,low,numerical-stroop,1,Intuitive,0,-1.2099564532342608,1.0,649,False,125
AUA-20260207-193205-764,15,1,low,low,flanker,1,Intuitive,0,0.0770910718978444,0.9709505944546686,2700,False,125
AUA-20260207-193205-764,16,1,low,low,stroop,1,Intuitive,0,0.916087922751879,0.9182958340544896,4037,False,125
AUA-20260207-193205-764,17,1,low,low,stroop,1,Intuitive,0,-0.4732456806818026,0.9852281360342516,1823,False,125
AUA-20260207-193205-764,18,1,low,low,reverse-stroop,1,Intuitive,0,0.3381402042503338,0.954434002924965,3116,False,125
AUA-20260207-193205-764,19,1,low,low,flanker,1,Intuitive,0,-0.4280641000823333,0.9182958340544896,1895,False,125
AUA-20260207-193205-764,20,1,low,low,number-word,1,Intuitive,0,1.0196290449589962,0.9709505944546686,4202,False,125
AUA-20260207-193205-764,21,2,low,high,stroop,1,Intuitive,0,0.489372994868002,1.0,3357,False,125
AUA-20260207-193205-764,22,2,low,high,stroop,1,Intuitive,0,-0.4123760512630732,0.9709505944546686,1920,False,125
AUA-20260207-193205-764,23,2,low,high,flanker,1,Intuitive,0,0.1498836184192117,0.9709505944546686,2816,False,125
AUA-20260207-193205-764,24,2,low,high,numerical-stroop,1,Intuitive,0,-0.3684495145691446,0.8812908992306927,1990,False,125
AUA-20260207-193205-764,25,2,low,high,gamble,1,Intuitive,0,0.9970382546592615,0.9709505944546686,4166,False,135
AUA-20260207-193205-764,26,2,low,high,reverse-stroop,1,Intuitive,0,0.0821112475200077,1.0,2708,False,125
AUA-20260207-193205-764,27,2,low,high,gamble,1,Intuitive,0,-0.5316052222894505,0.9709505944546686,1730,False,145
AUA-20260207-193205-764,28,2,low,high,reverse-stroop,1,Intuitive,0,-1.1051602871216029,1.0,816,False,125
AUA-20260207-193205-764,29,2,low,high,crt,1,Intuitive,0,0.8727889080107208,0.9709505944546686,3968,False,145
AUA-20260207-193205-764,30,2,low,high,gamble,1,Intuitive,0,0.1260377842139362,1.0,2778,False,105
AUA-20260207-193205-764,31,3,high,low,stroop,1,Intuitive,0,-1.148459301862761,0.9709505944546686,747,False,125
AUA-20260207-193205-764,32,3,high,low,reverse-stroop,1,Intuitive,0,-0.9388669696374448,0.9709505944546686,1081,False,125
AUA-20260207-193205-764,33,3,high,low,numerical-stroop,1,Intuitive,0,-0.2416900801095224,0.9709505944546686,2192,False,125
AUA-20260207-193205-764,34,3,high,low,number-word,1,Intuitive,0,1.0930491134331335,0.9709505944546686,4319,False,125
AUA-20260207-193205-764,35,3,high,low,reverse-stroop,1,Intuitive,0,-1.096374979782817,0.9709505944546686,830,False,125
AUA-20260207-193205-764,36,3,high,low,gamble,1,Intuitive,0,1.19470766978194,0.9709505944546686,4481,False,125
AUA-20260207-193205-764,37,3,high,low,gamble,1,Intuitive,0,0.3927346141413593,0.9709505944546686,3203,False,115
AUA-20260207-193205-764,38,3,high,low,stroop,1,Intuitive,0,0.4077951410078491,0.9709505944546686,3227,False,125
AUA-20260207-193205-764,39,3,high,low,crt,1,Intuitive,0,-0.8033222278390368,0.8812908992306927,1297,False,145
AUA-20260207-193205-764,40,3,high,low,flanker,1,Intuitive,0,0.0093187009986404,0.8812908992306927,2592,False,125
AUA-20260207-193205-764,41,4,high,high,stroop,0,Analytical,1,2.775435468810596,0.9709505944546686,7000,True,-10
AUA-20260207-193205-764,42,4,high,high,stroop,1,Intuitive,1,-1.4917138100281735,1.0,200,False,125
AUA-20260207-193205-764,43,4,high,high,gamble,1,Intuitive,0,-0.4205338366490885,1.0,1907,False,145
AUA-20260207-193205-764,44,4,high,high,flanker,1,Intuitive,0,-1.4917138100281735,0.9709505944546686,200,False,125
AUA-20260207-193205-764,45,4,high,high,reverse-stroop,1,Intuitive,0,-0.3188752803002825,0.9709505944546686,2069,False,125
AUA-20260207-193205-764,46,4,high,high,gamble,0,Analytical,1,2.775435468810596,0.9709505944546686,7000,True,-10
AUA-20260207-193205-764,47,4,high,high,stroop,1,Intuitive,1,-1.319772794969082,0.9709505944546686,474,False,125
AUA-20260207-193205-764,48,4,high,high,crt,1,Intuitive,0,-0.8616817694466847,1.0,1204,False,145
AUA-20260207-193205-764,49,4,high,high,stroop,1,Intuitive,0,0.2013404185463851,1.0,2898,False,125
AUA-20260207-193205-764,50,4,high,high,gamble,0,Analytical,1,0.959386937493037,1.0,4106,False,125
AUA-20260208-193941-113,11,1,low,low,stroop,0,Analytical,0,0.3350933856342538,3.4661976109059574e-09,2747,False,125
AUA-20260208-193941-113,12,1,low,low,flanker,0,Analytical,0,0.374790154195338,1.0,2796,False,125
AUA-20260208-193941-113,13,1,low,low,gamble,0,Analytical,0,1.1808775974255166,0.9182958340544896,3791,False,145
AUA-20260208-193941-113,14,1,low,low,flanker,0,Analytical,0,0.374790154195338,0.8112781244591328,2796,False,125
AUA-20260208-193941-113,15,1,low,low,gamble,0,Analytical,0,0.2030408698086065,0.9709505944546686,2584,False,125
AUA-20260208-193941-113,16,1,low,low,gamble,0,Analytical,0,2.207322613076407,0.9182958340544896,5058,False,125
AUA-20260208-193941-113,17,1,low,low,gamble,0,Analytical,0,-0.8566198093321709,0.863120568566631,1276,False,105
AUA-20260208-193941-113,18,1,low,low,stroop,0,Analytical,0,0.7004656840230081,0.954434002924965,3198,False,125
AUA-20260208-193941-113,19,1,low,low,numerical-stroop,0,Analytical,0,-1.4496409233467342,0.9182958340544896,544,False,125
AUA-20260208-193941-113,20,1,low,low,number-word,0,Analytical,0,1.6369853668110346,0.8812908992306927,4354,False,125
AUA-20260208-193941-113,21,2,low,high,reverse-stroop,0,Analytical,0,-0.1761037768564422,0.9709505944546686,2116,False,125
AUA-20260208-193941-113,22,2,low,high,crt,0,Analytical,0,1.2643218252171833,0.9709505944546686,3894,False,145
AUA-20260208-193941-113,23,2,low,high,reverse-stroop,0,Analytical,0,-0.9352032083204396,0.9709505944546686,1179,False,125
AUA-20260208-193941-113,24,2,low,high,stroop,0,Analytical,0,-1.1134335977783685,0.9709505944546686,959,False,125
AUA-20260208-193941-113,25,2,low,high,gamble,0,Analytical,0,-0.5374253845756981,0.9709505944546686,1670,False,125
AUA-20260208-193941-113,26,2,low,high,reverse-stroop,0,Analytical,0,0.0742289065185578,1.0,2425,False,125
AUA-20260208-193941-113,27,2,low,high,numerical-stroop,1,Intuitive,1,-0.5957553302164749,0.9709505944546686,1598,False,5
AUA-20260208-193941-113,28,2,low,high,numerical-stroop,1,Intuitive,0,-1.071306414815585,0.9709505944546686,1011,False,125
AUA-20260208-193941-113,29,2,low,high,reverse-stroop,1,Intuitive,0,-0.4839562677383194,0.9709505944546686,1736,False,125
AUA-20260208-193941-113,30,2,low,high,reverse-stroop,1,Intuitive,0,-0.7966695874235947,0.8812908992306927,1350,False,125
AUA-20260208-193941-113,31,3,high,low,reverse-stroop,1,Intuitive,0,-0.4734244719976236,0.9709505944546686,1749,False,125
AUA-20260208-193941-113,32,3,high,low,crt,1,Intuitive,0,3.78061086910958,1.0,7000,True,-10
AUA-20260208-193941-113,33,3,high,low,reverse-stroop,1,Intuitive,0,-0.5836032582079798,0.9709505944546686,1613,False,125
AUA-20260208-193941-113,34,3,high,low,stroop,1,Intuitive,0,0.5805652402058559,0.8812908992306927,3050,False,125
AUA-20260208-193941-113,35,3,high,low,gamble,1,Intuitive,0,0.1325588521593346,0.9709505944546686,2497,False,135
AUA-20260208-193941-113,36,3,high,low,stroop,1,Intuitive,0,-0.6305912699741609,1.0,1555,False,125
AUA-20260208-193941-113,37,3,high,low,number-word,1,Intuitive,0,-0.2158005454175264,0.9709505944546686,2067,False,125
AUA-20260208-193941-113,38,3,high,low,reverse-stroop,1,Intuitive,0,-0.2992447732091931,0.8812908992306927,1964,False,125
AUA-20260208-193941-113,39,3,high,low,numerical-stroop,1,Intuitive,0,0.4031449888818267,0.9709505944546686,2831,False,125
AUA-20260208-193941-113,40,3,high,low,gamble,1,Intuitive,0,0.3974740219445289,0.8812908992306927,2824,False,155
AUA-20260208-193941-113,41,4,high,high,flanker,1,Intuitive,0,-1.019457574246006,0.9709505944546686,1075,False,125
AUA-20260208-193941-113,42,4,high,high,flanker,0,Analytical,1,-0.2611682809159083,0.9709505944546686,2011,False,125
AUA-20260208-193941-113,43,4,high,high,numerical-stroop,0,Analytical,0,0.4679560395938008,0.9709505944546686,2911,False,125
AUA-20260208-193941-113,44,4,high,high,crt,0,Analytical,0,-0.5325645557723001,0.8812908992306927,1676,False,145
AUA-20260208-193941-113,45,4,high,high,gamble,0,Analytical,0,-0.7018834257573325,0.9709505944546686,1467,False,150
AUA-20260208-193941-113,46,4,high,high,flanker,0,Analytical,0,-0.3429922324397756,1.0,1910,False,125
AUA-20260208-193941-113,47,4,high,high,gamble,0,Analytical,0,-0.6929719062844361,1.0,1478,False,155
AUA-20260208-193941-113,48,4,high,high,flanker,0,Analytical,0,0.7312509331111958,1.0,3236,False,125
AUA-20260208-193941-113,49,4,high,high,numerical-stroop,0,Analytical,0,-0.4993488922824133,1.0,1717,False,125
AUA-20260208-193941-113,50,4,high,high,stroop,0,Analytical,0,-0.5763120150028826,0.9709505944546686,1622,False,125
AUA-20260209-122259-748,11,1,low,low,reverse-stroop,0,Analytical,0,0.0597207428343425,3.4661976109059574e-09,3278,False,125
AUA-20260209-122259-748,12,1,low,low,gamble,0,Analytical,0,0.3065420201167408,3.4661976109059574e-09,3648,False,135
AUA-20260209-122259-748,13,1,low,low,gamble,1,Intuitive,1,1.6300377339769525,3.4661976109059574e-09,5632,False,159
AUA-20260209-122259-748,14,1,low,low,stroop,1,Intuitive,0,-0.2111155776430999,3.4661976109059574e-09,2872,False,125
AUA-20260209-122259-748,15,1,low,low,flanker,1,Intuitive,0,-0.3231857792199727,0.7219280948873623,2704,False,125
AUA-20260209-122259-748,16,1,low,low,crt,1,Intuitive,0,2.7634143558763973,0.6500224216483541,7331,False,145
AUA-20260209-122259-748,17,1,low,low,flanker,1,Intuitive,0,-0.7514540495315936,0.5916727785823273,2062,False,125
AUA-20260209-122259-748,18,1,low,low,gamble,1,Intuitive,0,1.3825493721613584,0.8112781244591328,5261,False,145
AUA-20260209-122259-748,19,1,low,low,gamble,1,Intuitive,0,1.198434040999353,0.7642045065086203,4985,False,159
AUA-20260209-122259-748,20,1,low,low,numerical-stroop,1,Intuitive,0,-0.3098440885560592,0.7219280948873623,2724,False,5
AUA-20260209-122259-748,21,2,low,high,flanker,1,Intuitive,0,0.4266172360919616,0.7219280948873623,3828,False,125
AUA-20260209-122259-748,22,2,low,high,stroop,1,Intuitive,0,-0.5433236751745442,0.7219280948873623,2374,False,125
AUA-20260209-122259-748,23,2,low,high,reverse-stroop,1,Intuitive,0,0.2691852862577832,0.8812908992306927,3592,False,125
AUA-20260209-122259-748,24,2,low,high,numerical-stroop,1,Intuitive,0,-0.3685475274772783,0.9709505944546686,2636,False,125
AUA-20260209-122259-748,25,2,low,high,gamble,1,Intuitive,0,0.9182585370571712,0.9709505944546686,4565,False,125
AUA-20260209-122259-748,26,2,low,high,numerical-stroop,1,Intuitive,0,-0.1524121387218809,1.0,2960,False,5
AUA-20260209-122259-748,27,2,low,high,gamble,1,Intuitive,0,2.864144120388944,0.9709505944546686,7482,False,155
AUA-20260209-122259-748,28,2,low,high,reverse-stroop,1,Intuitive,0,-1.3358201006110015,0.9709505944546686,1186,False,125
AUA-20260209-122259-748,29,2,low,high,reverse-stroop,1,Intuitive,0,-0.3725500346764523,0.9709505944546686,2630,False,125
AUA-20260209-122259-748,30,2,low,high,numerical-stroop,1,Intuitive,0,-1.6820369733395548,0.8812908992306927,667,False,5
AUA-20260209-122259-748,31,3,high,low,numerical-stroop,1,Intuitive,0,0.0076881492450801,0.7219280948873623,3200,False,125
AUA-20260209-122259-748,32,3,high,low,numerical-stroop,0,Analytical,1,-0.1544133923214679,0.4689955935892811,2957,False,125
AUA-20260209-122259-748,33,3,high,low,gamble,1,Intuitive,1,0.3745846425026993,0.4689955935892811,3750,False,145
AUA-20260209-122259-748,34,3,high,low,flanker,1,Intuitive,0,-0.6627318066165693,0.7219280948873623,2195,False,125
AUA-20260209-122259-748,35,3,high,low,stroop,1,Intuitive,0,-1.2684445627582386,0.8812908992306927,1287,False,125
AUA-20260209-122259-748,36,3,high,low,reverse-stroop,1,Intuitive,0,-0.3978992469378878,0.8812908992306927,2592,False,125
AUA-20260209-122259-748,37,3,high,low,number-word,1,Intuitive,0,0.5406886912684213,0.8812908992306927,3999,False,125
AUA-20260209-122259-748,38,3,high,low,gamble,1,Intuitive,0,-0.3298566245519294,0.9709505944546686,2694,False,150
AUA-20260209-122259-748,39,3,high,low,number-word,1,Intuitive,0,0.6167363280527279,0.8812908992306927,4113,False,5
AUA-20260209-122259-748,40,3,high,low,crt,1,Intuitive,0,-0.4886227434524991,0.9709505944546686,2456,False,145
AUA-20260209-122259-748,41,4,high,high,flanker,1,Intuitive,0,-0.2438027197696878,0.9709505944546686,2823,False,5
AUA-20260209-122259-748,42,4,high,high,numerical-stroop,1,Intuitive,0,-0.0169939784831596,1.0,3163,False,125
AUA-20260209-122259-748,43,4,high,high,number-word,1,Intuitive,0,-0.8735305191064013,1.0,1879,False,125
AUA-20260209-122259-748,44,4,high,high,crt,1,Intuitive,0,-1.0329637225401669,0.9709505944546686,1640,False,145
AUA-20260209-122259-748,45,4,high,high,number-word,1,Intuitive,0,0.9516127637169548,0.8812908992306927,4615,False,125
AUA-20260209-122259-748,46,4,high,high,number-word,1,Intuitive,0,-0.4519330941267372,0.8812908992306927,2511,False,125
AUA-20260209-122259-748,47,4,high,high,crt,1,Intuitive,0,0.6467551320465331,0.8812908992306927,4158,False,145
AUA-20260209-122259-748,48,4,high,high,number-word,1,Intuitive,0,-1.0703204563991244,0.8812908992306927,1584,False,125
AUA-20260209-122259-748,49,4,high,high,stroop,1,Intuitive,0,-0.6787418354132654,0.8812908992306927,2171,False,125
AUA-20260209-122259-748,50,4,high,high,reverse-stroop,1,Intuitive,0,-1.2364245051648464,0.8812908992306927,1335,False,125
AUA-20260210-084551-214,11,1,low,low,numerical-stroop,1,Intuitive,0,-0.1683173265751762,3.4661976109059574e-09,2347,False,125
AUA-20260210-084551-214,12,1,low,low,numerical-stroop,1,Intuitive,0,-0.0280243729345535,3.4661976109059574e-09,2552,False,125
AUA-20260210-084551-214,13,1,low,low,stroop,1,Intuitive,0,0.5201446800710015,0.9182958340544896,3353,False,125
AUA-20260210-084551-214,14,1,low,low,stroop,1,Intuitive,0,1.2113441102028497,1.0,4363,False,125
AUA-20260210-084551-214,15,1,low,low,flanker,1,Intuitive,0,-0.2169065934458308,0.9709505944546686,2276,False,125
AUA-20260210-084551-214,16,1,low,low,stroop,1,Intuitive,0,0.2258716553614026,0.9182958340544896,2923,False,125
AUA-20260210-084551-214,17,1,low,low,crt,1,Intuitive,0,2.04009907048965,0.9852281360342516,5574,False,5
AUA-20260210-084551-214,18,1,low,low,stroop,1,Intuitive,0,-0.3537777677293652,1.0,2076,False,125
AUA-20260210-084551-214,19,1,low,low,crt,1,Intuitive,0,1.9559232983052763,0.9910760598382222,5451,False,145
AUA-20260210-084551-214,20,1,low,low,crt,1,Intuitive,0,1.6055330921394284,0.9709505944546686,4939,False,145
AUA-20260210-084551-214,21,2,low,high,flanker,1,Intuitive,0,-0.1149375686045978,0.8812908992306927,2425,False,125
AUA-20260210-084551-214,22,2,low,high,numerical-stroop,1,Intuitive,0,-1.512392258039483,0.7219280948873623,383,False,125
AUA-20260210-084551-214,23,2,low,high,flanker,1,Intuitive,0,-0.5412912764978072,0.8812908992306927,1802,False,125
AUA-20260210-084551-214,24,2,low,high,gamble,1,Intuitive,0,0.7295575767248089,0.9709505944546686,3659,False,145
AUA-20260210-084551-214,25,2,low,high,stroop,1,Intuitive,0,0.289516751403246,0.9709505944546686,3016,False,125
AUA-20260210-084551-214,26,2,low,high,reverse-stroop,1,Intuitive,0,-0.2846578247161803,0.8812908992306927,2177,False,125
AUA-20260210-084551-214,27,2,low,high,stroop,1,Intuitive,0,-0.0950912483334853,0.8812908992306927,2454,False,125
AUA-20260210-084551-214,28,2,low,high,stroop,1,Intuitive,0,1.117587355818629,0.8812908992306927,4226,False,125
AUA-20260210-084551-214,29,2,low,high,gamble,1,Intuitive,0,1.425547497956581,0.8812908992306927,4676,False,150
AUA-20260210-084551-214,30,2,low,high,reverse-stroop,1,Intuitive,0,-0.6925339240811126,0.9709505944546686,1581,False,125
AUA-20260210-084551-214,31,3,high,low,gamble,1,Intuitive,0,-0.7862906784653336,0.9709505944546686,1444,False,145
AUA-20260210-084551-214,32,3,high,low,stroop,1,Intuitive,0,-0.7780784080083216,0.9709505944546686,1456,False,125
AUA-20260210-084551-214,33,3,high,low,numerical-stroop,1,Intuitive,0,-0.8622541801926952,0.9709505944546686,1333,False,125
AUA-20260210-084551-214,34,3,high,low,number-word,1,Intuitive,0,0.2272403671042379,0.8812908992306927,2925,False,5
AUA-20260210-084551-214,35,3,high,low,flanker,1,Intuitive,0,-0.93137412320588,0.8812908992306927,1232,False,125
AUA-20260210-084551-214,36,3,high,low,stroop,1,Intuitive,0,-0.281236045359092,0.9709505944546686,2182,False,125
AUA-20260210-084551-214,37,3,high,low,crt,1,Intuitive,0,-0.1224654831901922,0.9709505944546686,2414,False,145
AUA-20260210-084551-214,38,3,high,low,crt,0,Analytical,1,3.0159905431312497,1.0,7000,True,-10
AUA-20260210-084551-214,39,3,high,low,gamble,0,Analytical,0,0.7391385589246563,1.0,3673,False,150
AUA-20260210-084551-214,40,3,high,low,reverse-stroop,0,Analytical,0,-0.7869750343367513,0.9709505944546686,1443,False,125
AUA-20260210-084551-214,41,4,high,high,stroop,0,Analytical,0,-1.0737201444607556,0.9709505944546686,1024,False,125
AUA-20260210-084551-214,42,4,high,high,gamble,0,Analytical,0,0.0150900469647597,0.9709505944546686,2615,False,150
AUA-20260210-084551-214,43,4,high,high,gamble,1,Intuitive,1,-0.1772139529036059,0.9709505944546686,2334,False,155
AUA-20260210-084551-214,44,4,high,high,stroop,1,Intuitive,0,-0.4906489420128995,1.0,1876,False,125
AUA-20260210-084551-214,45,4,high,high,number-word,1,Intuitive,0,-1.201010336544443,0.9709505944546686,838,False,125
AUA-20260210-084551-214,46,4,high,high,numerical-stroop,1,Intuitive,0,-0.8075057104792814,0.9709505944546686,1413,False,125
AUA-20260210-084551-214,47,4,high,high,reverse-stroop,1,Intuitive,0,-0.3537777677293652,1.0,2076,False,125
AUA-20260210-084551-214,48,4,high,high,numerical-stroop,1,Intuitive,0,-1.162686407745053,1.0,894,False,125
AUA-20260210-084551-214,49,4,high,high,reverse-stroop,1,Intuitive,0,-1.0388179950184544,1.0,1075,False,125
AUA-20260210-084551-214,50,4,high,high,gamble,1,Intuitive,0,-0.2565992339880558,0.9709505944546686,2218,False,145
AUA-20260210-122623-729,11,1,low,low,flanker,0,Analytical,0,0.938298852556706,3.466197873826607e-09,3507,False,125
AUA-20260210-122623-729,12,1,low,low,reverse-stroop,1,Intuitive,1,0.3510952782978538,1.0,2813,False,125
AUA-20260210-122623-729,13,1,low,low,reverse-stroop,1,Intuitive,0,-0.2851829462592885,0.9182958340544896,2061,False,125
AUA-20260210-122623-729,14,1,low,low,reverse-stroop,1,Intuitive,0,0.3815554060692063,0.8112781244591328,2849,False,125
AUA-20260210-122623-729,15,1,low,low,numerical-stroop,1,Intuitive,0,-0.1946486776055461,0.7219280948873623,2168,False,125
AUA-20260210-122623-729,16,1,low,low,stroop,1,Intuitive,0,-1.2362158244537405,0.6500224216483541,937,False,125
AUA-20260210-122623-729,17,1,low,low,gamble,1,Intuitive,0,1.9172535145415643,0.5916727785823273,4664,False,145
AUA-20260210-122623-729,18,1,low,low,reverse-stroop,1,Intuitive,0,0.3231734945074473,0.5435644431995964,2780,False,125
AUA-20260210-122623-729,19,1,low,low,stroop,1,Intuitive,0,0.2918672520757794,0.5032583347756457,2743,False,125
AUA-20260210-122623-729,20,1,low,low,number-word,1,Intuitive,0,-1.162603849006305,0.4689955935892812,1024,False,125
AUA-20260210-122623-729,21,2,low,high,flanker,0,Analytical,1,-0.9773047383972436,3.4661976109059574e-09,1243,False,125
AUA-20260210-122623-729,22,2,low,high,reverse-stroop,1,Intuitive,1,0.2326392258537049,0.4689955935892812,2673,False,125
AUA-20260210-122623-729,23,2,low,high,gamble,1,Intuitive,0,-0.8503875393499414,0.4689955935892812,1393,False,145
AUA-20260210-122623-729,24,2,low,high,crt,1,Intuitive,0,0.3409419023740696,0.4689955935892812,2801,False,145
AUA-20260210-122623-729,25,2,low,high,gamble,0,Analytical,1,3.0755844845132767,0.4689955935892812,6033,False,159
AUA-20260210-122623-729,26,2,low,high,gamble,1,Intuitive,1,1.5288868854568192,0.7219280948873623,4205,False,115
AUA-20260210-122623-729,27,2,low,high,flanker,1,Intuitive,0,0.1962562954601449,0.8812908992306927,2630,False,5
AUA-20260210-122623-729,28,2,low,high,numerical-stroop,1,Intuitive,0,0.4593979548182184,0.8812908992306927,2941,False,125
AUA-20260210-122623-729,29,2,low,high,stroop,1,Intuitive,0,-0.2801062582973963,0.8812908992306927,2067,False,125
AUA-20260210-122623-729,30,2,low,high,flanker,1,Intuitive,0,0.5837768098845747,0.8812908992306927,3088,False,125
AUA-20260210-122623-729,31,3,high,low,gamble,1,Intuitive,0,0.7606147738904826,0.8812908992306927,3297,False,115
AUA-20260210-122623-729,32,3,high,low,numerical-stroop,1,Intuitive,0,-0.8791554378006633,0.7219280948873623,1359,False,125
AUA-20260210-122623-729,33,3,high,low,numerical-stroop,1,Intuitive,0,-1.2421386270759478,0.8812908992306927,930,False,125
AUA-20260210-122623-729,34,3,high,low,stroop,1,Intuitive,0,-0.4789432034715033,0.8812908992306927,1832,False,125
AUA-20260210-122623-729,35,3,high,low,stroop,1,Intuitive,0,-0.1447279126469405,0.8812908992306927,2227,False,125
AUA-20260210-122623-729,36,3,high,low,stroop,1,Intuitive,0,-1.1439893264793677,0.8812908992306927,1046,False,125
AUA-20260210-122623-729,37,3,high,low,stroop,1,Intuitive,0,-0.3926395081193377,0.8812908992306927,1934,False,125
AUA-20260210-122623-729,38,3,high,low,gamble,1,Intuitive,0,-0.1591118618723014,0.8812908992306927,2210,False,125
AUA-20260210-122623-729,39,3,high,low,flanker,1,Intuitive,0,-1.1592193903650436,0.8812908992306927,1028,False,125
AUA-20260210-122623-729,40,3,high,low,crt,0,Analytical,1,2.5704540323050136,0.9709505944546686,5436,False,145
AUA-20260210-122623-729,41,4,high,high,gamble,1,Intuitive,1,-0.2741834556751889,0.9709505944546686,2074,False,150
AUA-20260210-122623-729,42,4,high,high,crt,1,Intuitive,0,0.5152415223990314,1.0,3007,False,145
AUA-20260210-122623-729,43,4,high,high,crt,1,Intuitive,0,0.3646331128628994,0.9709505944546686,2829,False,145
AUA-20260210-122623-729,44,4,high,high,number-word,1,Intuitive,0,-0.1261133901200029,1.0,2249,False,125
AUA-20260210-122623-729,45,4,high,high,numerical-stroop,1,Intuitive,0,-0.5110955605634866,0.9709505944546686,1794,False,125
AUA-20260210-122623-729,46,4,high,high,stroop,1,Intuitive,0,-0.0990377209899117,0.9709505944546686,2281,False,125
AUA-20260210-122623-729,47,4,high,high,stroop,1,Intuitive,0,-1.0052265221876502,0.9709505944546686,1210,False,125
AUA-20260210-122623-729,48,4,high,high,numerical-stroop,1,Intuitive,0,-0.225954920037214,0.9709505944546686,2131,False,125
AUA-20260210-122623-729,49,4,high,high,stroop,1,Intuitive,0,-0.6422433329123656,0.9709505944546686,1639,False,125
AUA-20260210-122623-729,50,4,high,high,numerical-stroop,1,Intuitive,0,-1.361440794180412,0.9709505944546686,789,False,125
AUA-20260211-115408-331,11,1,low,low,gamble,0,Analytical,0,1.4333390841393996,3.4661976109059574e-09,3836,False,125
AUA-20260211-115408-331,12,1,low,low,reverse-stroop,1,Intuitive,1,0.6065812320880712,1.0,2987,False,125
AUA-20260211-115408-331,13,1,low,low,gamble,1,Intuitive,0,1.72547966790312,0.9182958340544896,4136,False,159
AUA-20260211-115408-331,14,1,low,low,stroop,1,Intuitive,0,0.6815639819207595,0.8112781244591328,3064,False,125
AUA-20260211-115408-331,15,1,low,low,gamble,1,Intuitive,0,0.574445767874062,0.9709505944546686,2954,False,125
AUA-20260211-115408-331,16,1,low,low,stroop,1,Intuitive,0,0.4566157324226949,0.9182958340544896,2833,False,125
AUA-20260211-115408-331,17,1,low,low,crt,1,Intuitive,0,1.2502643183141349,0.9852281360342516,3648,False,145
AUA-20260211-115408-331,18,1,low,low,reverse-stroop,1,Intuitive,0,-0.2357574510973221,1.0,2122,False,125
AUA-20260211-115408-331,19,1,low,low,stroop,1,Intuitive,0,-0.0332066463544761,0.9910760598382222,2330,False,125
AUA-20260211-115408-331,20,1,low,low,number-word,1,Intuitive,0,-0.2951593697959452,0.9709505944546686,2061,False,5
AUA-20260211-115408-331,21,2,low,high,flanker,1,Intuitive,0,-0.3974085741132473,0.9709505944546686,1956,False,125
AUA-20260211-115408-331,22,2,low,high,number-word,1,Intuitive,0,1.4508675191652227,1.0,3854,False,125
AUA-20260211-115408-331,23,2,low,high,crt,1,Intuitive,0,1.844283505300366,0.9709505944546686,4258,False,145
AUA-20260211-115408-331,24,2,low,high,stroop,1,Intuitive,0,0.2764623724350674,0.9709505944546686,2648,False,125
AUA-20260211-115408-331,25,2,low,high,gamble,1,Intuitive,0,-0.5814571418843911,0.9709505944546686,1767,False,145
AUA-20260211-115408-331,26,2,low,high,stroop,0,Analytical,1,-0.0098353996533784,0.8812908992306927,2354,False,125
AUA-20260211-115408-331,27,2,low,high,stroop,1,Intuitive,1,-0.0439184677591458,0.9709505944546686,2319,False,125
AUA-20260211-115408-331,28,2,low,high,gamble,1,Intuitive,0,1.5677237526707108,1.0,3974,False,135
AUA-20260211-115408-331,29,2,low,high,flanker,1,Intuitive,0,0.1751869700636443,0.9709505944546686,2544,False,125
AUA-20260211-115408-331,30,2,low,high,crt,1,Intuitive,0,2.571713558872029,0.9709505944546686,5005,False,145
AUA-20260211-115408-331,31,3,high,low,stroop,1,Intuitive,0,-0.9777945338571716,1.0,1360,False,125
AUA-20260211-115408-331,32,3,high,low,reverse-stroop,1,Intuitive,0,-0.5278980348610425,0.9709505944546686,1822,False,125
AUA-20260211-115408-331,33,3,high,low,number-word,1,Intuitive,0,-0.882361943161023,1.0,1458,False,125
AUA-20260211-115408-331,34,3,high,low,reverse-stroop,1,Intuitive,0,0.4147422487498949,1.0,2790,False,125
AUA-20260211-115408-331,35,3,high,low,reverse-stroop,1,Intuitive,0,-1.587394551977468,0.9709505944546686,734,False,125
AUA-20260211-115408-331,36,3,high,low,numerical-stroop,1,Intuitive,0,-2.10740479107689,0.8812908992306927,200,False,125
AUA-20260211-115408-331,37,3,high,low,number-word,1,Intuitive,0,-0.5025791842681867,0.9709505944546686,1848,False,125
AUA-20260211-115408-331,38,3,high,low,stroop,1,Intuitive,0,-0.4753127297835727,1.0,1876,False,125
AUA-20260211-115408-331,39,3,high,low,flanker,1,Intuitive,0,0.0106144412100819,0.9709505944546686,2375,False,125
AUA-20260211-115408-331,40,3,high,low,gamble,1,Intuitive,0,-0.66617791117587,1.0,1680,False,150
AUA-20260211-115408-331,41,4,high,high,numerical-stroop,1,Intuitive,0,0.2316674829246302,0.9709505944546686,2602,False,125
AUA-20260211-115408-331,42,4,high,high,reverse-stroop,1,Intuitive,0,-0.6632565053382328,0.8812908992306927,1683,False,125
AUA-20260211-115408-331,43,4,high,high,number-word,1,Intuitive,0,-0.3282686359558335,0.9709505944546686,2027,False,125
AUA-20260211-115408-331,44,4,high,high,number-word,1,Intuitive,0,-0.1705127207234246,0.9709505944546686,2189,False,125
AUA-20260211-115408-331,45,4,high,high,numerical-stroop,1,Intuitive,0,-1.1930047638964456,0.9709505944546686,1139,False,125
AUA-20260211-115408-331,46,4,high,high,gamble,1,Intuitive,0,-0.5843785477220284,1.0,1764,False,150
AUA-20260211-115408-331,47,4,high,high,number-word,1,Intuitive,0,-1.3118086012936918,1.0,1017,False,125
AUA-20260211-115408-331,48,4,high,high,gamble,1,Intuitive,0,-0.2863951522830337,0.9709505944546686,2070,False,125
AUA-20260211-115408-331,49,4,high,high,numerical-stroop,1,Intuitive,0,-0.2328360452596849,0.9709505944546686,2125,False,125
AUA-20260211-115408-331,50,4,high,high,reverse-stroop,1,Intuitive,0,-1.1774239327623806,1.0,1155,False,125
AUA-20260212-100915-936,11,1,low,low,reverse-stroop,1,Intuitive,0,-0.1224880938160322,3.4661976109059574e-09,2446,False,125
AUA-20260212-100915-936,12,1,low,low,reverse-stroop,1,Intuitive,0,0.0211784267366446,3.4661976109059574e-09,2736,False,125
AUA-20260212-100915-936,13,1,low,low,number-word,1,Intuitive,0,-0.1437903710014292,0.9182958340544896,2403,False,5
AUA-20260212-100915-936,14,1,low,low,stroop,1,Intuitive,0,0.0201876231466261,0.8112781244591328,2734,False,125
AUA-20260212-100915-936,15,1,low,low,stroop,1,Intuitive,0,0.1940736531948661,0.9709505944546686,3085,False,125
AUA-20260212-100915-936,16,1,low,low,numerical-stroop,1,Intuitive,0,-0.5846979685596445,1.0,1513,False,125
AUA-20260212-100915-936,17,1,low,low,flanker,1,Intuitive,0,-0.2839890789890414,0.9852281360342516,2120,False,125
AUA-20260212-100915-936,18,1,low,low,gamble,1,Intuitive,0,-0.0471870209746292,0.954434002924965,2598,False,115
AUA-20260212-100915-936,19,1,low,low,flanker,1,Intuitive,0,0.0558565523872907,0.9910760598382222,2806,False,125
AUA-20260212-100915-936,20,1,low,low,numerical-stroop,1,Intuitive,0,-0.5906427900997553,0.9709505944546686,1501,False,125
AUA-20260212-100915-936,21,2,low,high,gamble,1,Intuitive,0,-0.0357927796894169,0.9709505944546686,2621,False,115
AUA-20260212-100915-936,22,2,low,high,numerical-stroop,1,Intuitive,0,-0.3459143033651953,0.8812908992306927,1995,False,125
AUA-20260212-100915-936,23,2,low,high,reverse-stroop,1,Intuitive,0,-0.1482489871565122,0.9709505944546686,2394,False,125
AUA-20260212-100915-936,24,2,low,high,numerical-stroop,1,Intuitive,0,0.337740173747543,0.8812908992306927,3375,False,125
AUA-20260212-100915-936,25,2,low,high,flanker,1,Intuitive,0,0.1217449911235184,0.9709505944546686,2939,False,125
AUA-20260212-100915-936,26,2,low,high,gamble,0,Analytical,1,4.610580655702157,1.0,12000,True,-10
AUA-20260212-100915-936,27,2,low,high,reverse-stroop,1,Intuitive,1,0.0880576690628907,0.9709505944546686,2871,False,125
AUA-20260212-100915-936,28,2,low,high,crt,1,Intuitive,0,1.5336401068998258,0.8812908992306927,5789,False,145
AUA-20260212-100915-936,29,2,low,high,stroop,1,Intuitive,0,-0.5485336375239707,0.9709505944546686,1586,False,125
AUA-20260212-100915-936,30,2,low,high,stroop,1,Intuitive,0,0.3788585227333091,0.8812908992306927,3458,False,125
AUA-20260212-100915-936,31,3,high,low,gamble,1,Intuitive,0,0.9753222839244228,0.8812908992306927,4662,False,105
AUA-20260212-100915-936,32,3,high,low,crt,1,Intuitive,0,-0.7065668101319152,0.7219280948873623,1267,False,145
AUA-20260212-100915-936,33,3,high,low,numerical-stroop,1,Intuitive,0,-0.2825028736040137,0.7219280948873623,2123,False,125
AUA-20260212-100915-936,34,3,high,low,crt,1,Intuitive,0,0.1757437867795245,0.7219280948873623,3048,False,145
AUA-20260212-100915-936,35,3,high,low,numerical-stroop,1,Intuitive,0,0.0360404805869215,0.8812908992306927,2766,False,125
AUA-20260212-100915-936,36,3,high,low,flanker,1,Intuitive,0,-0.109112245350783,0.9709505944546686,2473,False,125
AUA-20260212-100915-936,37,3,high,low,number-word,1,Intuitive,0,-0.9810194045670292,0.9709505944546686,713,False,125
AUA-20260212-100915-936,38,3,high,low,flanker,1,Intuitive,0,-0.3677119823456015,1.0,1951,False,125
AUA-20260212-100915-936,39,3,high,low,numerical-stroop,1,Intuitive,0,-0.6035232367699953,0.9709505944546686,1475,False,125
AUA-20260212-100915-936,40,3,high,low,reverse-stroop,0,Analytical,1,2.1335716806560043,0.9709505944546686,7000,True,-10
AUA-20260212-100915-936,41,4,high,high,stroop,1,Intuitive,1,0.1266990090736107,1.0,2949,False,125
AUA-20260212-100915-936,42,4,high,high,numerical-stroop,1,Intuitive,0,-1.2351605254067644,0.9709505944546686,200,False,125
AUA-20260212-100915-936,43,4,high,high,reverse-stroop,1,Intuitive,0,-0.5356531908537306,0.8812908992306927,1612,False,125
AUA-20260212-100915-936,44,4,high,high,crt,1,Intuitive,0,-0.6704024790962414,0.9709505944546686,1340,False,145
AUA-20260212-100915-936,45,4,high,high,crt,1,Intuitive,0,1.0060371952149951,0.9709505944546686,4724,False,5
AUA-20260212-100915-936,46,4,high,high,numerical-stroop,1,Intuitive,0,-0.315199392074623,1.0,2057,False,125
AUA-20260212-100915-936,47,4,high,high,numerical-stroop,1,Intuitive,0,-0.4108119385114045,1.0,1864,False,125
AUA-20260212-100915-936,48,4,high,high,stroop,1,Intuitive,0,-0.7823632847683275,1.0,1114,False,125
AUA-20260212-100915-936,49,4,high,high,numerical-stroop,1,Intuitive,0,-0.7288598909073306,0.9709505944546686,1222,False,125
AUA-20260212-100915-936,50,4,high,high,gamble,1,Intuitive,0,-1.2351605254067644,0.9709505944546686,200,False,159
AUA-20260212-150216-998,11,1,low,low,reverse-stroop,0,Analytical,0,-0.0266589782432105,3.4661976109059574e-09,2538,False,125
AUA-20260212-150216-998,12,1,low,low,gamble,0,Analytical,0,1.293379468667835,3.4661976109059574e-09,3995,False,135
AUA-20260212-150216-998,13,1,low,low,gamble,0,Analytical,0,0.9436644099803514,3.4661976109059574e-09,3609,False,125
AUA-20260212-150216-998,14,1,low,low,gamble,0,Analytical,0,0.2089003877120892,0.8112781244591328,2798,False,135
AUA-20260212-150216-998,15,1,low,low,numerical-stroop,1,Intuitive,1,-0.5004957028379098,0.9709505944546686,2015,False,125
AUA-20260212-150216-998,16,1,low,low,flanker,1,Intuitive,0,0.4671096927015525,0.9182958340544896,3083,False,125
AUA-20260212-150216-998,17,1,low,low,flanker,1,Intuitive,0,0.1636005096437623,0.9852281360342516,2748,False,125
AUA-20260212-150216-998,18,1,low,low,flanker,1,Intuitive,0,-0.0656168733819716,1.0,2495,False,125
AUA-20260212-150216-998,19,1,low,low,flanker,1,Intuitive,0,-0.5820354833608982,0.9910760598382222,1925,False,125
AUA-20260212-150216-998,20,1,low,low,reverse-stroop,1,Intuitive,0,0.1835324559938262,1.0,2770,False,125
AUA-20260212-150216-998,21,2,low,high,flanker,1,Intuitive,0,0.4136558365809268,1.0,3024,False,125
AUA-20260212-150216-998,22,2,low,high,stroop,1,Intuitive,0,0.5558974537154733,1.0,3181,False,125
AUA-20260212-150216-998,23,2,low,high,gamble,1,Intuitive,0,1.2453615979154085,1.0,3942,False,105
AUA-20260212-150216-998,24,2,low,high,crt,1,Intuitive,0,-0.2631243417598768,1.0,2277,False,145
AUA-20260212-150216-998,25,2,low,high,gamble,1,Intuitive,0,2.447620361848804,0.9709505944546686,5269,False,135
AUA-20260212-150216-998,26,2,low,high,reverse-stroop,1,Intuitive,0,0.3384580389875041,1.0,2941,False,125
AUA-20260212-150216-998,27,2,low,high,reverse-stroop,1,Intuitive,0,-0.0683348660660712,1.0,2492,False,125
AUA-20260212-150216-998,28,2,low,high,numerical-stroop,1,Intuitive,0,-1.476255076429671,0.9709505944546686,938,False,125
AUA-20260212-150216-998,29,2,low,high,gamble,1,Intuitive,0,1.3287133735611298,0.9709505944546686,4034,False,155
AUA-20260212-150216-998,30,2,low,high,gamble,1,Intuitive,0,1.5307508297458678,1.0,4257,False,115
AUA-20260212-150216-998,31,3,high,low,flanker,1,Intuitive,0,-1.8069441863284568,1.0,573,False,125
AUA-20260212-150216-998,32,3,high,low,gamble,1,Intuitive,0,0.1110526510845032,1.0,2690,False,159
AUA-20260212-150216-998,33,3,high,low,gamble,1,Intuitive,0,-1.323141488558726,1.0,1107,False,105
AUA-20260212-150216-998,34,3,high,low,gamble,1,Intuitive,0,0.2369863121144519,0.9709505944546686,2829,False,150
AUA-20260212-150216-998,35,3,high,low,flanker,1,Intuitive,0,0.154540534030097,1.0,2738,False,125
AUA-20260212-150216-998,36,3,high,low,crt,1,Intuitive,0,0.3457060194784365,1.0,2949,False,145
AUA-20260212-150216-998,37,3,high,low,gamble,1,Intuitive,0,-0.5920014565359301,1.0,1914,False,145
AUA-20260212-150216-998,38,3,high,low,reverse-stroop,1,Intuitive,0,-1.276029615367666,0.9709505944546686,1159,False,125
AUA-20260212-150216-998,39,3,high,low,gamble,1,Intuitive,0,-2.107735376702148,0.9709505944546686,241,False,155
AUA-20260212-150216-998,40,3,high,low,gamble,1,Intuitive,0,1.3060634345269666,1.0,4009,False,150
AUA-20260212-150216-998,41,4,high,high,number-word,1,Intuitive,0,-0.2821502905485742,1.0,2256,False,125
AUA-20260212-150216-998,42,4,high,high,reverse-stroop,1,Intuitive,0,-1.2733116226835666,1.0,1162,False,125
AUA-20260212-150216-998,43,4,high,high,number-word,1,Intuitive,0,0.7633708952684104,0.9709505944546686,3410,False,125
AUA-20260212-150216-998,44,4,high,high,reverse-stroop,1,Intuitive,0,-0.9145365883824176,0.8812908992306927,1558,False,125
AUA-20260212-150216-998,45,4,high,high,gamble,1,Intuitive,0,-0.2839622856713072,0.9709505944546686,2254,False,105
AUA-20260212-150216-998,46,4,high,high,number-word,1,Intuitive,0,0.1699424925733281,0.9709505944546686,2755,False,125
AUA-20260212-150216-998,47,4,high,high,gamble,1,Intuitive,0,1.3731072540680902,1.0,4083,False,155
AUA-20260212-150216-998,48,4,high,high,stroop,1,Intuitive,0,-0.7369610663545761,1.0,1754,False,125
AUA-20260212-150216-998,49,4,high,high,stroop,1,Intuitive,0,-1.0495302250260317,0.9709505944546686,1409,False,125
AUA-20260212-150216-998,50,4,high,high,reverse-stroop,1,Intuitive,0,-0.9525884859598122,0.9709505944546686,1516,False,125
AUA-20260212-161531-363,11,1,low,low,gamble,1,Intuitive,0,-0.7890865104497754,3.466197873826607e-09,1803,False,115
AUA-20260212-161531-363,12,1,low,low,stroop,0,Analytical,1,-0.0868383990147058,1.0,2697,False,125
AUA-20260212-161531-363,13,1,low,low,gamble,0,Analytical,0,1.7708984953297453,0.9182958340544896,5062,False,150
AUA-20260212-161531-363,14,1,low,low,gamble,1,Intuitive,1,0.2438623335514733,0.8112781244591328,3118,False,135
AUA-20260212-161531-363,15,1,low,low,reverse-stroop,0,Analytical,1,-0.0939080108747904,0.9709505944546686,2688,False,125
AUA-20260212-161531-363,16,1,low,low,reverse-stroop,0,Analytical,0,0.3224135764413022,1.0,3218,False,125
AUA-20260212-161531-363,17,1,low,low,stroop,0,Analytical,0,-0.4049709327185125,0.9852281360342516,2292,False,125
AUA-20260212-161531-363,18,1,low,low,gamble,0,Analytical,0,0.9900991410048472,1.0,4068,False,159
AUA-20260212-161531-363,19,1,low,low,flanker,0,Analytical,0,-1.0593027859907864,0.9910760598382222,1459,False,5
AUA-20260212-161531-363,20,1,low,low,number-word,0,Analytical,0,2.3026904096938865,1.0,5739,False,125
AUA-20260212-161531-363,21,2,low,high,crt,0,Analytical,0,1.5784479502496649,1.0,4817,False,145
AUA-20260212-161531-363,22,2,low,high,number-word,0,Analytical,0,1.4174179023255158,0.9709505944546686,4612,False,5
AUA-20260212-161531-363,23,2,low,high,gamble,0,Analytical,0,1.6562136807105954,0.9709505944546686,4916,False,115
