participantId,nickname,age,gender,occupation,field,education,stress,sleep,gaming,handedness,trialNumber,block,timePressure,complexity,timeLimit,trialType,choice,responseTimeMs,timedOut,pointsEarned,totalScoreAfter,timestamp,rt_norm,rt_trend,choice_entropy,perf_delta_norm,timeout_flag
AUA-20260201-154949-463,Igor,22,M,employed,humanities,bachelor_progress,4,yes,never,right,11,1,low,low,12,flanker,B,1305,False,125,125,2026-02-01T15:50:28.770Z,-1.1913418170327044,0.0,3.4661976109059578e-09,-0.1456326430824482,0
AUA-20260201-154949-463,Igor,22,M,employed,humanities,bachelor_progress,4,yes,never,right,12,1,low,low,12,gamble,B,3056,False,115,240,2026-02-01T15:50:32.341Z,0.4844611405703363,0.0,3.4661976109059578e-09,-1.0848374046122482,0
AUA-20260201-154949-463,Igor,22,M,employed,humanities,bachelor_progress,4,yes,never,right,13,1,low,low,12,reverse-stroop,B,2734,False,125,365,2026-02-01T15:50:36.043Z,0.17628949445487138,0.0,3.4661976109059578e-09,-0.7717691507689807,0
AUA-20260201-154949-463,Igor,22,M,employed,humanities,bachelor_progress,4,yes,never,right,14,1,low,low,12,numerical-stroop,B,2369,False,125,490,2026-02-01T15:50:39.962Z,-0.17303550812942892,0.0,3.4661976109059578e-09,-0.6152350238473483,0
AUA-20260201-154949-463,Igor,22,M,employed,humanities,bachelor_progress,4,yes,never,right,15,1,low,low,12,flanker,B,2475,False,125,615,2026-02-01T15:50:43.106Z,-0.07158769915974171,0.15820115870461604,3.4661976109059578e-09,-0.5213145476943682,0
AUA-20260201-154949-463,Igor,22,M,employed,humanities,bachelor_progress,4,yes,never,right,16,1,low,low,12,number-word,A,3106,False,125,740,2026-02-01T15:50:46.755Z,0.5323138806503774,-0.015217171345453084,0.6500224216483541,-0.4587008969257158,0
AUA-20260201-154949-463,Igor,22,M,employed,humanities,bachelor_progress,4,yes,never,right,17,1,low,low,12,gamble,A,4836,False,145,885,2026-02-01T15:50:52.813Z,2.1880186874198007,0.4728807774709665,0.863120568566631,0.12271157449749504,0
AUA-20260201-154949-463,Igor,22,M,employed,humanities,bachelor_progress,4,yes,never,right,18,1,low,low,12,crt,B,3272,False,145,1030,2026-02-01T15:50:56.216Z,0.691184977716114,0.39880473582706283,0.8112781244591328,0.5587709280649018,0
AUA-20260201-154949-463,Igor,22,M,employed,humanities,bachelor_progress,4,yes,never,right,19,1,low,low,12,number-word,A,2070,False,125,1155,2026-02-01T15:50:59.932Z,-0.45919489380807493,-0.061634329223092976,0.9182958340544896,0.4805038646040869,0
AUA-20260201-154949-463,Igor,22,M,employed,humanities,bachelor_progress,4,yes,never,right,20,1,low,low,12,flanker,B,3346,False,125,1280,2026-02-01T15:51:03.430Z,0.762007033034575,-0.21878272764594808,0.8812908992306927,0.4178902138354318,0
AUA-20260201-154949-463,Igor,22,M,employed,humanities,bachelor_progress,4,yes,never,right,21,2,low,high,12,reverse-stroop,B,2348,False,125,1405,2026-02-01T15:51:07.131Z,-0.1931336589630462,-0.4691482637447233,0.8812908992306927,0.4178902138354318,0
AUA-20260201-154949-463,Igor,22,M,employed,humanities,bachelor_progress,4,yes,never,right,22,2,low,high,12,flanker,B,2259,False,125,1530,2026-02-01T15:51:09.135Z,-0.2783115363055194,-0.16729317931982382,0.8812908992306927,0.6057311661413918,0
AUA-20260201-154949-463,Igor,22,M,employed,humanities,bachelor_progress,4,yes,never,right,23,2,low,high,12,crt,A,4509,False,145,1675,2026-02-01T15:51:14.283Z,1.8750617672963317,0.3628194752868719,0.9709505944546686,0.9814130707533117,0
AUA-20260201-154949-463,Igor,22,M,employed,humanities,bachelor_progress,4,yes,never,right,24,2,low,high,12,gamble,B,4638,False,115,1790,2026-02-01T15:51:20.712Z,1.998521836702838,0.45412250335959037,0.9709505944546686,0.7935721184473518,0
AUA-20260201-154949-463,Igor,22,M,employed,humanities,bachelor_progress,4,yes,never,right,25,2,low,high,12,stroop,B,2928,False,125,1915,2026-02-01T15:51:24.377Z,0.361958125965431,0.33870169428653113,0.9709505944546686,0.7935721184473518,0
AUA-20260201-154949-463,Igor,22,M,employed,humanities,bachelor_progress,4,yes,never,right,26,2,low,high,12,reverse-stroop,B,2677,False,125,2040,2026-02-01T15:51:28.679Z,0.12173737076362448,-0.07130058271926132,0.8812908992306927,0.7935721184473518,0
AUA-20260201-154949-463,Igor,22,M,employed,humanities,bachelor_progress,4,yes,never,right,27,2,low,high,12,reverse-stroop,B,2059,False,125,2165,2026-02-01T15:51:31.500Z,-0.469722496625684,-0.6566352993783244,0.7219280948873623,0.4178902138354318,0
AUA-20260201-154949-463,Igor,22,M,employed,humanities,bachelor_progress,4,yes,never,right,28,2,low,high,12,gamble,A,3136,False,155,2320,2026-02-01T15:51:35.162Z,0.5610255246984022,-0.37066732465999874,0.8812908992306927,0.6057311661413918,0
AUA-20260201-154949-463,Igor,22,M,employed,humanities,bachelor_progress,4,yes,never,right,29,2,low,high,12,stroop,A,2715,False,125,2445,2026-02-01T15:51:38.902Z,0.15810545322445574,0.003158280845282724,0.8812908992306927,0.6057311661413918,0
AUA-20260201-154949-463,Igor,22,M,employed,humanities,bachelor_progress,4,yes,never,right,30,2,low,high,12,reverse-stroop,A,2218,False,125,2570,2026-02-01T15:51:41.804Z,-0.31755078317115315,-0.02507483580194156,0.9709505944546686,0.6057311661413918,0
AUA-20260201-154949-463,Igor,22,M,employed,humanities,bachelor_progress,4,yes,never,right,31,3,high,low,7,crt,A,1604,False,145,2715,2026-02-01T15:51:43.488Z,-0.9051824313540583,-0.1749496177326304,1.0,0.9814130707533117,0
AUA-20260201-154949-463,Igor,22,M,employed,humanities,bachelor_progress,4,yes,never,right,32,3,high,low,7,gamble,A,2805,False,125,2840,2026-02-01T15:51:47.799Z,0.2442403853685298,-0.16968581632382587,0.9709505944546686,0.9814130707533117,0
AUA-20260201-154949-463,Igor,22,M,employed,humanities,bachelor_progress,4,yes,never,right,33,3,high,low,7,reverse-stroop,B,2034,False,125,2965,2026-02-01T15:51:49.738Z,-0.49364886666570457,-0.07417174712406377,1.0,0.6057311661413918,0
AUA-20260201-154949-463,Igor,22,M,employed,humanities,bachelor_progress,4,yes,never,right,34,3,high,low,7,numerical-stroop,B,3421,False,125,3090,2026-02-01T15:51:53.764Z,0.8337861431546366,0.27142074173399333,1.0,0.7935721184473518,0
AUA-20260201-154949-463,Igor,22,M,employed,humanities,bachelor_progress,4,yes,never,right,35,3,high,low,7,numerical-stroop,A,1755,False,125,3215,2026-02-01T15:51:56.953Z,-0.7606671563123341,0.08785763078695555,0.9709505944546686,0.7935721184473518,0
AUA-20260201-154949-463,Igor,22,M,employed,humanities,bachelor_progress,4,yes,never,right,36,3,high,low,7,flanker,B,1588,False,125,3340,2026-02-01T15:51:58.541Z,-0.9204953081796715,-0.25964896767430323,0.9709505944546686,0.7935721184473518,0
AUA-20260201-154949-463,Igor,22,M,employed,humanities,bachelor_progress,4,yes,never,right,37,3,high,low,7,stroop,B,1434,False,125,3465,2026-02-01T15:52:01.198Z,-1.0678817476261981,-0.2902747213255295,0.9709505944546686,0.7935721184473518,0
AUA-20260201-154949-463,Igor,22,M,employed,humanities,bachelor_progress,4,yes,never,right,38,3,high,low,7,stroop,A,2996,False,125,3590,2026-02-01T15:52:04.204Z,0.42703785247428694,-0.11207111726745633,0.9709505944546686,0.2300492615294718,0
AUA-20260201-154949-463,Igor,22,M,employed,humanities,bachelor_progress,4,yes,never,right,39,3,high,low,7,number-word,A,3780,False,125,3715,2026-02-01T15:52:09.332Z,1.177368816929332,0.522360510713729,0.9709505944546686,0.2300492615294718,0
AUA-20260201-154949-463,Igor,22,M,employed,humanities,bachelor_progress,4,yes,never,right,40,3,high,low,7,stroop,A,1458,False,125,3840,2026-02-01T15:52:11.233Z,-1.0449124323877785,0.19964163161393167,0.9709505944546686,0.2300492615294718,0
AUA-20260201-154949-463,Igor,22,M,employed,humanities,bachelor_progress,4,yes,never,right,41,4,high,high,7,numerical-stroop,A,1373,False,125,3965,2026-02-01T15:52:13.478Z,-1.1262620905238483,-0.1588710970657366,0.9709505944546686,-0.1456326430824482,0
AUA-20260201-154949-463,Igor,22,M,employed,humanities,bachelor_progress,4,yes,never,right,42,4,high,high,7,numerical-stroop,B,1330,False,125,4090,2026-02-01T15:52:15.735Z,-1.1674154469926838,-0.5492537506387122,1.0,-0.1456326430824482,0
AUA-20260201-154949-463,Igor,22,M,employed,humanities,bachelor_progress,4,yes,never,right,43,4,high,high,7,stroop,B,1891,False,125,4215,2026-02-01T15:52:17.287Z,-0.6305077032946222,-0.3738256055052813,1.0,-0.1456326430824482,0
AUA-20260201-154949-463,Igor,22,M,employed,humanities,bachelor_progress,4,yes,never,right,44,4,high,high,7,number-word,A,2986,False,125,4340,2026-02-01T15:52:21.121Z,0.41746730445827873,0.34205138609213404,0.9709505944546686,-0.1456326430824482,0
AUA-20260201-154949-463,Igor,22,M,employed,humanities,bachelor_progress,4,yes,never,right,45,4,high,high,7,stroop,A,505,False,125,4465,2026-02-01T15:52:23.283Z,-1.9569856583133625,-0.00765643841280661,0.9709505944546686,-0.1456326430824482,0
AUA-20260201-154949-463,Igor,22,M,employed,humanities,bachelor_progress,4,yes,never,right,46,4,high,high,7,flanker,A,865,False,125,4590,2026-02-01T15:52:25.221Z,-1.6124459297370664,-0.22165389205075053,0.8812908992306927,-0.1456326430824482,0
AUA-20260201-154949-463,Igor,22,M,employed,humanities,bachelor_progress,4,yes,never,right,47,4,high,high,7,crt,B,4684,False,5,4595,2026-02-01T15:52:30.357Z,2.0425463575764757,0.3316194887546851,0.8812908992306927,-2.399724070753968,0
AUA-20260201-154949-463,Igor,22,M,employed,humanities,bachelor_progress,4,yes,never,right,48,4,high,high,7,gamble,A,3563,False,115,4710,2026-02-01T15:52:35.585Z,0.9696879249819534,0.5103973256937188,0.8812908992306927,-2.5875650230599283,0
AUA-20260201-154949-463,Igor,22,M,employed,humanities,bachelor_progress,4,yes,never,right,49,4,high,high,7,stroop,B,1830,False,125,4835,2026-02-01T15:52:38.214Z,-0.6888880461922724,0.51183290789612,0.9709505944546686,-2.5875650230599283,0
AUA-20260201-154949-463,Igor,22,M,employed,humanities,bachelor_progress,4,yes,never,right,50,4,high,high,7,stroop,A,2034,False,125,4960,2026-02-01T15:52:40.120Z,-0.49364886666570457,-0.04938402776260244,0.9709505944546686,-2.5875650230599283,0
AUA-20260201-214332-929,Hrant,18,M,student,stem,bachelor_complete,4,no,never,right,11,1,low,low,12,reverse-stroop,B,2538,False,125,125,2026-02-01T21:44:11.034Z,-0.12024485358282168,0.0,3.4661976109059578e-09,-0.11046518022479879,0
AUA-20260201-214332-929,Hrant,18,M,student,stem,bachelor_complete,4,no,never,right,12,1,low,low,12,numerical-stroop,B,3111,False,125,250,2026-02-01T21:44:15.714Z,0.2597899015355278,0.0,3.4661976109059578e-09,-0.11046518022479879,0
AUA-20260201-214332-929,Hrant,18,M,student,stem,bachelor_complete,4,no,never,right,13,1,low,low,12,numerical-stroop,A,2355,False,125,375,2026-02-01T21:44:19.070Z,-0.24161720992951966,0.0,0.9182958340544896,-0.11046518022479879,0
AUA-20260201-214332-929,Hrant,18,M,student,stem,bachelor_complete,4,no,never,right,14,1,low,low,12,crt,B,2832,False,145,520,2026-02-01T21:44:22.026Z,0.07474680087580787,0.0,0.8112781244591328,0.6851569021076904,0
AUA-20260201-214332-929,Hrant,18,M,student,stem,bachelor_complete,4,no,never,right,15,1,low,low,12,flanker,B,200,False,125,645,2026-02-01T21:44:23.701Z,-1.6708927723728757,-0.3286338938239828,0.7219280948873623,0.5260324856411925,0
AUA-20260201-214332-929,Hrant,18,M,student,stem,bachelor_complete,4,no,never,right,16,1,low,low,12,stroop,A,1482,False,125,770,2026-02-01T21:44:25.585Z,-0.8206230410260625,-0.35901014475665366,0.9182958340544896,0.4199495413301955,0
AUA-20260201-214332-929,Hrant,18,M,student,stem,bachelor_complete,4,no,never,right,17,1,low,low,12,number-word,A,3615,False,125,895,2026-02-01T21:44:30.140Z,0.5940613091788927,0.07759871963149541,0.9852281360342515,0.3441760096794814,0
AUA-20260201-214332-929,Hrant,18,M,student,stem,bachelor_complete,4,no,never,right,18,1,low,low,12,gamble,B,4682,False,105,1000,2026-02-01T21:44:35.147Z,1.301735102741334,0.47189306852828206,0.954434002924965,-0.11046518022479879,0
AUA-20260201-214332-929,Hrant,18,M,student,stem,bachelor_complete,4,no,never,right,19,1,low,low,12,gamble,B,3313,False,159,1159,2026-02-01T21:44:39.305Z,0.3937637593608447,0.6251671207234837,0.9182958340544896,0.4906715042041921,0
AUA-20260201-214332-929,Hrant,18,M,student,stem,bachelor_complete,4,no,never,right,20,1,low,low,12,stroop,A,2024,False,125,1284,2026-02-01T21:44:42.786Z,-0.4611486304254597,0.05186512713831575,0.9709505944546686,0.4305578357612948,0
AUA-20260201-214332-929,Hrant,18,M,student,stem,bachelor_complete,4,no,never,right,21,2,low,high,12,numerical-stroop,A,2447,False,125,1409,2026-02-01T21:44:45.343Z,-0.18059941329620702,-0.3312205178116993,1.0,0.4305578357612948,0
AUA-20260201-214332-929,Hrant,18,M,student,stem,bachelor_complete,4,no,never,right,22,2,low,high,12,crt,B,4885,False,145,1554,2026-02-01T21:44:50.833Z,1.4363721974865782,-0.030508898316656333,1.0,0.7488066686942905,0
AUA-20260201-214332-929,Hrant,18,M,student,stem,bachelor_complete,4,no,never,right,23,2,low,high,12,numerical-stroop,B,3637,False,125,1679,2026-02-01T21:44:54.353Z,0.6086525214172935,0.23272983520249357,0.9709505944546686,0.7488066686942905,0
AUA-20260201-214332-929,Hrant,18,M,student,stem,bachelor_complete,4,no,never,right,24,2,low,high,12,flanker,A,3096,False,125,1804,2026-02-01T21:44:58.328Z,0.2498413477366181,0.22112318910376563,1.0,0.4305578357612948,0
AUA-20260201-214332-929,Hrant,18,M,student,stem,bachelor_complete,4,no,never,right,25,2,low,high,12,stroop,A,525,False,125,1929,2026-02-01T21:45:00.880Z,-1.4553407733964996,-0.37360135699505453,0.9709505944546686,0.4305578357612948,0
AUA-20260201-214332-929,Hrant,18,M,student,stem,bachelor_complete,4,no,never,right,26,2,low,high,12,gamble,A,4593,False,159,2088,2026-02-01T21:45:05.713Z,1.2427070168678032,-0.2451323656051343,0.9709505944546686,0.9715808517473883,0
AUA-20260201-214332-929,Hrant,18,M,student,stem,bachelor_complete,4,no,never,right,27,2,low,high,12,crt,B,3926,False,145,2233,2026-02-01T21:45:10.189Z,0.8003279912762865,0.1376216608849171,1.0,1.2898296846803838,0
AUA-20260201-214332-929,Hrant,18,M,student,stem,bachelor_complete,4,no,never,right,28,2,low,high,12,stroop,A,2390,False,125,2358,2026-02-01T21:45:13.945Z,-0.21840391773206377,0.13191782337354224,0.9709505944546686,1.6080785176133796,0
AUA-20260201-214332-929,Hrant,18,M,student,stem,bachelor_complete,4,no,never,right,29,2,low,high,12,number-word,B,3673,False,125,2483,2026-02-01T21:45:17.577Z,0.6325290505346768,0.2714628713262486,0.9709505944546686,1.0670555016272862,0
AUA-20260201-214332-929,Hrant,18,M,student,stem,bachelor_complete,4,no,never,right,30,2,low,high,12,crt,B,6596,False,145,2628,2026-02-01T21:45:25.695Z,2.571170567482208,0.24891281604871995,1.0,1.3853043345602816,0
AUA-20260201-214332-929,Hrant,18,M,student,stem,bachelor_complete,4,no,never,right,31,3,high,low,7,reverse-stroop,,7000,True,-10,2618,2026-02-01T21:45:32.905Z,2.8391182831328416,0.6867155068927382,0.9709505944546686,-0.762875287737439,1
AUA-20260201-214332-929,Hrant,18,M,student,stem,bachelor_complete,4,no,never,right,32,3,high,low,7,reverse-stroop,B,1703,False,125,2743,2026-02-01T21:45:35.490Z,-0.6740476817221267,0.1295301704618039,0.9709505944546686,-1.0811241206704347,0
AUA-20260201-214332-929,Hrant,18,M,student,stem,bachelor_complete,4,no,never,right,33,3,high,low,7,stroop,B,1786,False,125,2868,2026-02-01T21:45:37.316Z,-0.6189990173681599,-0.5748274385010008,0.9709505944546686,-1.0811241206704347,0
AUA-20260201-214332-929,Hrant,18,M,student,stem,bachelor_complete,4,no,never,right,34,3,high,low,7,flanker,A,1641,False,125,2993,2026-02-01T21:45:39.869Z,-0.71516837075762,-1.0030795176980658,0.9709505944546686,-1.0811241206704347,0
AUA-20260201-214332-929,Hrant,18,M,student,stem,bachelor_complete,4,no,never,right,35,3,high,low,7,numerical-stroop,B,1683,False,125,3118,2026-02-01T21:45:42.829Z,-0.687312420120673,-0.7093982095542524,0.8812908992306927,-1.0811241206704347,0
AUA-20260201-214332-929,Hrant,18,M,student,stem,bachelor_complete,4,no,never,right,36,3,high,low,7,numerical-stroop,B,867,False,125,3243,2026-02-01T21:45:43.405Z,-1.228513746781359,-0.11772455328709777,0.7219280948873623,-1.6221471366565283,0
AUA-20260201-214332-929,Hrant,18,M,student,stem,bachelor_complete,4,no,never,right,37,3,high,low,7,numerical-stroop,A,1855,False,125,3368,2026-02-01T21:45:46.713Z,-0.5732356698931753,-0.04218186810737699,0.8812908992306927,-1.940395969589524,0
AUA-20260201-214332-929,Hrant,18,M,student,stem,bachelor_complete,4,no,never,right,38,3,high,low,7,flanker,B,3647,False,125,3493,2026-02-01T21:45:50.393Z,0.6152848906165667,0.2774983272975871,0.7219280948873623,-1.940395969589524,0
AUA-20260201-214332-929,Hrant,18,M,student,stem,bachelor_complete,4,no,never,right,39,3,high,low,7,numerical-stroop,B,2798,False,125,3618,2026-02-01T21:45:54.337Z,0.05219674559827928,0.33228169688358306,0.7219280948873623,-1.940395969589524,0
AUA-20260201-214332-929,Hrant,18,M,student,stem,bachelor_complete,4,no,never,right,40,3,high,low,7,number-word,B,4139,False,125,3743,2026-02-01T21:45:59.509Z,0.9415974552208038,0.49656548194957806,0.7219280948873623,-2.25864480252252,0
AUA-20260201-214332-929,Hrant,18,M,student,stem,bachelor_complete,4,no,never,right,41,4,high,high,7,reverse-stroop,B,2746,False,125,3868,2026-02-01T21:46:03.784Z,0.017708425762059093,0.15082007559147062,0.7219280948873623,-0.11046518022479879,0
AUA-20260201-214332-929,Hrant,18,M,student,stem,bachelor_complete,4,no,never,right,42,4,high,high,7,gamble,A,4255,False,105,3973,2026-02-01T21:46:08.985Z,1.018532937932372,0.07720077747953905,0.8812908992306927,-0.4287140131577944,0
AUA-20260201-214332-929,Hrant,18,M,student,stem,bachelor_complete,4,no,never,right,43,4,high,high,7,gamble,A,1231,False,159,4132,2026-02-01T21:46:10.483Z,-0.9870955079278176,-0.20016490243406257,0.9709505944546686,0.11230900282829909,0
AUA-20260201-214332-929,Hrant,18,M,student,stem,bachelor_complete,4,no,never,right,44,4,high,high,7,stroop,B,2008,False,125,4257,2026-02-01T21:46:13.607Z,-0.4717604211442967,-0.3831519686420078,0.8812908992306927,0.11230900282829909,0
AUA-20260201-214332-929,Hrant,18,M,student,stem,bachelor_complete,4,no,never,right,45,4,high,high,7,numerical-stroop,B,1350,False,125,4382,2026-02-01T21:46:15.257Z,-0.9081703144564676,-0.3342050839513722,0.8812908992306927,0.11230900282829909,0
AUA-20260201-214332-929,Hrant,18,M,student,stem,bachelor_complete,4,no,never,right,46,4,high,high,7,number-word,B,1674,False,125,4507,2026-02-01T21:46:18.818Z,-0.6932815524000188,-0.3344703787193432,0.8812908992306927,0.11230900282829909,0
AUA-20260201-214332-929,Hrant,18,M,student,stem,bachelor_complete,4,no,never,right,47,4,high,high,7,crt,A,2401,False,145,4652,2026-02-01T21:46:21.285Z,-0.21110831161286334,0.13304532613741868,0.8812908992306927,0.4305578357612948,0
AUA-20260201-214332-929,Hrant,18,M,student,stem,bachelor_complete,4,no,never,right,48,4,high,high,7,crt,A,1478,False,145,4797,2026-02-01T21:46:24.094Z,-0.8232759887057718,-0.0005969132279345923,0.9709505944546686,0.7488066686942905,0
AUA-20260201-214332-929,Hrant,18,M,student,stem,bachelor_complete,4,no,never,right,49,4,high,high,7,crt,B,1530,False,145,4942,2026-02-01T21:46:26.313Z,-0.7887876688695515,0.010877085486807903,0.9709505944546686,1.0670555016272862,0
AUA-20260201-214332-929,Hrant,18,M,student,stem,bachelor_complete,4,no,never,right,50,4,high,high,7,stroop,B,1060,False,125,5067,2026-02-01T21:46:28.240Z,-1.1005090212353879,-0.13921342949274265,0.9709505944546686,1.0670555016272862,0
AUA-20260202-093857-453,Tigran,20,F,student,humanities,highschool,3,no,occasionally,right,11,1,low,low,12,numerical-stroop,A,2377,False,125,125,2026-02-02T09:39:38.059Z,-0.22389139127011046,0.0,3.4661978738266075e-09,-0.04049859189265091,0
AUA-20260202-093857-453,Tigran,20,F,student,humanities,highschool,3,no,occasionally,right,12,1,low,low,12,stroop,A,1401,False,125,250,2026-02-02T09:39:40.651Z,-0.8711124142382788,0.0,3.4661978738266075e-09,-0.04049859189265091,0
AUA-20260202-093857-453,Tigran,20,F,student,humanities,highschool,3,no,occasionally,right,13,1,low,low,12,gamble,A,4348,False,115,365,2026-02-02T09:39:45.198Z,1.0831502442526966,0.0,3.4661978738266075e-09,-0.37748538921634134,0
AUA-20260202-093857-453,Tigran,20,F,student,humanities,highschool,3,no,occasionally,right,14,1,low,low,12,crt,B,4829,False,145,510,2026-02-02T09:39:51.865Z,1.4021188016786073,0.0,0.8112781244591328,0.21224150610011727,0
AUA-20260202-093857-453,Tigran,20,F,student,humanities,highschool,3,no,occasionally,right,15,1,low,low,12,number-word,B,3916,False,125,635,2026-02-02T09:39:55.547Z,0.7966753652339992,0.4314364728925106,0.9709505944546686,0.16169348650156362,0
AUA-20260202-093857-453,Tigran,20,F,student,humanities,highschool,3,no,occasionally,right,16,1,low,low,12,flanker,A,2442,False,125,760,2026-02-02T09:39:58.943Z,-0.1807875321585009,0.10941748851408582,0.9182958340544896,0.12799480676919503,0
AUA-20260202-093857-453,Tigran,20,F,student,humanities,highschool,3,no,occasionally,right,17,1,low,low,12,gamble,A,3734,False,135,895,2026-02-02T09:40:03.192Z,0.6759845597214923,-0.2397237702899517,0.863120568566631,0.24834723438479883,0
AUA-20260202-093857-453,Tigran,20,F,student,humanities,highschool,3,no,occasionally,right,18,1,low,low,12,crt,B,2516,False,145,1040,2026-02-02T09:40:07.774Z,-0.13171544640066846,-0.3188359301671058,0.954434002924965,0.4649816040928854,0
AUA-20260202-093857-453,Tigran,20,F,student,humanities,highschool,3,no,occasionally,right,19,1,low,low,12,gamble,B,3251,False,115,1155,2026-02-02T09:40:11.134Z,0.35568972970753204,-0.08328991852951018,0.9910760598382222,0.29648820543104093,0
AUA-20260202-093857-453,Tigran,20,F,student,humanities,highschool,3,no,occasionally,right,20,1,low,low,12,gamble,B,2888,False,150,1305,2026-02-02T09:40:15.726Z,0.11497125497654322,0.027122274425612793,1.0,0.5155296236914391,0
AUA-20260202-093857-453,Tigran,20,F,student,humanities,highschool,3,no,occasionally,right,21,2,low,high,12,reverse-stroop,A,2456,False,125,1430,2026-02-02T09:40:18.710Z,-0.17150362404215422,-0.14482896661500813,1.0,0.5155296236914391,0
AUA-20260202-093857-453,Tigran,20,F,student,humanities,highschool,3,no,occasionally,right,22,2,low,high,12,stroop,A,2560,False,125,1555,2026-02-02T09:40:21.019Z,-0.10253744946357891,-0.04688373598755072,1.0,0.5155296236914391,0
AUA-20260202-093857-453,Tigran,20,F,student,humanities,highschool,3,no,occasionally,right,23,2,low,high,12,crt,A,5114,False,145,1700,2026-02-02T09:40:27.675Z,1.5911126454756648,0.22533371270961436,1.0,0.8188177412827609,0
AUA-20260202-093857-453,Tigran,20,F,student,humanities,highschool,3,no,occasionally,right,24,2,low,high,12,flanker,A,2660,False,125,1825,2026-02-02T09:40:31.098Z,-0.036223820061102655,0.14602261194425276,0.9709505944546686,0.6166256628885463,0
AUA-20260202-093857-453,Tigran,20,F,student,humanities,highschool,3,no,occasionally,right,25,2,low,high,12,crt,A,4641,False,145,1970,2026-02-02T09:40:36.686Z,1.277449178401952,0.29642192342906887,0.8812908992306927,0.8188177412827609,0
AUA-20260202-093857-453,Tigran,20,F,student,humanities,highschool,3,no,occasionally,right,26,2,low,high,12,numerical-stroop,B,3512,False,125,2095,2026-02-02T09:40:40.875Z,0.5287683024479951,0.09489480367494352,0.9709505944546686,0.8188177412827609,0
AUA-20260202-093857-453,Tigran,20,F,student,humanities,highschool,3,no,occasionally,right,27,2,low,high,12,flanker,A,3119,False,125,2220,2026-02-02T09:40:44.839Z,0.2681557388962634,-0.20809216906497052,0.9709505944546686,0.7177217020856536,0
AUA-20260202-093857-453,Tigran,20,F,student,humanities,highschool,3,no,occasionally,right,28,2,low,high,12,flanker,A,2842,False,125,2345,2026-02-02T09:40:47.004Z,0.08446698545140413,-0.0767911828480675,0.8812908992306927,0.5155296236914391,0
AUA-20260202-093857-453,Tigran,20,F,student,humanities,highschool,3,no,occasionally,right,29,2,low,high,12,gamble,A,3816,False,159,2504,2026-02-02T09:40:52.714Z,0.7303617358315229,-0.15384762021374493,0.7219280948873623,0.9603521961587116,0
AUA-20260202-093857-453,Tigran,20,F,student,humanities,highschool,3,no,occasionally,right,30,2,low,high,12,flanker,A,421,False,125,2629,2026-02-02T09:40:53.526Z,-1.520985982382546,-0.3637302572725823,0.4689955935892811,0.7076120981659434,0
AUA-20260202-093857-453,Tigran,20,F,student,humanities,highschool,3,no,occasionally,right,31,3,high,low,7,reverse-stroop,A,2188,False,125,2754,2026-02-02T09:40:56.139Z,-0.3492241508407906,-0.28402127473080585,0.4689955935892811,0.7076120981659434,0
AUA-20260202-093857-453,Tigran,20,F,student,humanities,highschool,3,no,occasionally,right,32,3,high,low,7,flanker,B,1275,False,125,2879,2026-02-02T09:40:58.614Z,-0.9546675872853988,-0.3157855032145919,0.7219280948873623,0.7076120981659434,0
AUA-20260202-093857-453,Tigran,20,F,student,humanities,highschool,3,no,occasionally,right,33,3,high,low,7,crt,A,5533,False,145,3024,2026-02-02T09:41:05.438Z,1.8689667526720402,0.2843528428778182,0.7219280948873623,0.7076120981659434,0
AUA-20260202-093857-453,Tigran,20,F,student,humanities,highschool,3,no,occasionally,right,34,3,high,low,7,stroop,A,2084,False,125,3149,2026-02-02T09:41:08.107Z,-0.4181903254193659,0.44237822174391916,0.7219280948873623,0.7076120981659434,0
AUA-20260202-093857-453,Tigran,20,F,student,humanities,highschool,3,no,occasionally,right,35,3,high,low,7,numerical-stroop,A,785,False,125,3274,2026-02-02T09:41:10.604Z,-1.2796043713575325,-0.13242831791674506,0.7219280948873623,0.5054200197717289,0
AUA-20260202-093857-453,Tigran,20,F,student,humanities,highschool,3,no,occasionally,right,36,3,high,low,7,gamble,A,3421,False,135,3409,2026-02-02T09:41:14.864Z,0.46842289969174167,-0.03023901500752917,0.4689955935892811,0.6065160589688361,0
AUA-20260202-093857-453,Tigran,20,F,student,humanities,highschool,3,no,occasionally,right,37,3,high,low,7,gamble,B,1963,False,145,3554,2026-02-02T09:41:17.730Z,-0.4984298169963622,-0.3848179914225697,0.7219280948873623,0.8087081373630507,0
AUA-20260202-093857-453,Tigran,20,F,student,humanities,highschool,3,no,occasionally,right,38,3,high,low,7,crt,A,3321,False,145,3699,2026-02-02T09:41:21.496Z,0.4021092702892654,0.24217737457784327,0.7219280948873623,1.0109002157572653,0
AUA-20260202-093857-453,Tigran,20,F,student,humanities,highschool,3,no,occasionally,right,39,3,high,low,7,flanker,A,200,False,125,3824,2026-02-02T09:41:22.643Z,-1.6675391033620186,-0.08421830934114483,0.7219280948873623,0.6671736824871,0
AUA-20260202-093857-453,Tigran,20,F,student,humanities,highschool,3,no,occasionally,right,40,3,high,low,7,gamble,A,2177,False,125,3949,2026-02-02T09:41:25.619Z,-0.356518650075063,-0.2818992385899266,0.7219280948873623,0.6671736824871,0
AUA-20260202-093857-453,Tigran,20,F,student,humanities,highschool,3,no,occasionally,right,41,4,high,high,7,number-word,A,200,False,5,3954,2026-02-02T09:41:26.532Z,-1.6675391033620186,-0.30968464930956413,0.7219280948873623,-0.5459787878781873,0
AUA-20260202-093857-453,Tigran,20,F,student,humanities,highschool,3,no,occasionally,right,42,4,high,high,7,crt,A,3862,False,145,4099,2026-02-02T09:41:31.553Z,0.7608660053566619,0.07175134701347932,0.4689955935892811,-0.3437867094839727,0
AUA-20260202-093857-453,Tigran,20,F,student,humanities,highschool,3,no,occasionally,right,43,4,high,high,7,flanker,,7000,True,-10,4089,2026-02-02T09:41:39.901Z,2.841787696006367,1.0136038254168496,0.7219280948873623,-1.9107753170391353,1
AUA-20260202-093857-453,Tigran,20,F,student,humanities,highschool,3,no,occasionally,right,44,4,high,high,7,gamble,A,2028,False,145,4234,2026-02-02T09:41:42.168Z,-0.4553259578847526,0.4311712183749006,0.7219280948873623,-1.7085832386449207,0
AUA-20260202-093857-453,Tigran,20,F,student,humanities,highschool,3,no,occasionally,right,45,4,high,high,7,flanker,B,2125,False,125,4359,2026-02-02T09:41:45.502Z,-0.3910017373643506,0.13368827687539217,0.8812908992306927,-1.7085832386449207,0
AUA-20260202-093857-453,Tigran,20,F,student,humanities,highschool,3,no,occasionally,right,46,4,high,high,7,number-word,B,1386,False,125,4484,2026-02-02T09:41:47.605Z,-0.8810594586486502,-0.6516640361381342,0.9709505944546686,-1.8096792778420279,0
AUA-20260202-093857-453,Tigran,20,F,student,humanities,highschool,3,no,occasionally,right,47,4,high,high,7,gamble,B,2051,False,150,4634,2026-02-02T09:41:49.028Z,-0.44007382312218307,-0.6989456539020997,0.9709505944546686,-1.7591312582434744,0
AUA-20260202-093857-453,Tigran,20,F,student,humanities,highschool,3,no,occasionally,right,48,4,high,high,7,flanker,B,439,False,125,4759,2026-02-02T09:41:50.099Z,-1.5090495290901003,-0.2156519228168528,1.0,-1.9613233366376888,0
AUA-20260202-093857-453,Tigran,20,F,student,humanities,highschool,3,no,occasionally,right,49,4,high,high,7,numerical-stroop,A,2798,False,125,4884,2026-02-02T09:41:54.663Z,0.05528898851431458,0.026459138131588046,1.0,-1.9613233366376888,0
AUA-20260202-093857-453,Tigran,20,F,student,humanities,highschool,3,no,occasionally,right,50,4,high,high,7,reverse-stroop,A,906,False,125,5009,2026-02-02T09:41:55.471Z,-1.1993648797805363,-0.014124803062727453,1.0,-1.9613233366376888,0
AUA-20260202-225153-508,Raisa,25,F,employed,humanities,master,4,no,occasionally,right,11,1,low,low,12,crt,B,2709,False,145,145,2026-02-02T22:52:36.287Z,-0.08128103631456476,0.0,3.4661976109059578e-09,2.8501274404646164,0
AUA-20260202-225153-508,Raisa,25,F,employed,humanities,master,4,no,occasionally,right,12,1,low,low,12,crt,A,3612,False,145,290,2026-02-02T22:52:40.171Z,0.32422601226030806,0.0,1.0,2.8501274404646164,0
AUA-20260202-225153-508,Raisa,25,F,employed,humanities,master,4,no,occasionally,right,13,1,low,low,12,flanker,B,2172,False,125,415,2026-02-02T22:52:43.050Z,-0.32242974626440607,0.0,0.9182958340544896,2.1969049280809143,0
AUA-20260202-225153-508,Raisa,25,F,employed,humanities,master,4,no,occasionally,right,14,1,low,low,12,gamble,B,4107,False,105,520,2026-02-02T22:52:48.008Z,0.5465139292531785,0.0,0.8112781244591328,1.380376787601285,0
AUA-20260202-225153-508,Raisa,25,F,employed,humanities,master,4,no,occasionally,right,15,1,low,low,12,crt,,12000,True,-10,510,2026-02-02T22:53:01.874Z,4.090995805666768,0.8566841600955537,0.7219280948873623,-1.3631577644102664,1
AUA-20260202-225153-508,Raisa,25,F,employed,humanities,master,4,no,occasionally,right,16,1,low,low,12,numerical-stroop,B,2925,False,125,635,2026-02-02T22:53:05.408Z,0.01571732746414236,0.37964081823388424,0.6500224216483541,-0.9875548197896378,0
AUA-20260202-225153-508,Raisa,25,F,employed,humanities,master,4,no,occasionally,right,17,1,low,low,12,numerical-stroop,A,2262,False,125,760,2026-02-02T22:53:07.353Z,-0.28201376135661144,-0.044996463197344655,0.863120568566631,-0.7192670022034738,0
AUA-20260202-225153-508,Raisa,25,F,employed,humanities,master,4,no,occasionally,right,18,1,low,low,12,reverse-stroop,A,2149,False,125,885,2026-02-02T22:53:10.876Z,-0.3327582757408425,-0.6131553977011421,0.954434002924965,-0.518051139013851,0
AUA-20260202-225153-508,Raisa,25,F,employed,humanities,master,4,no,occasionally,right,19,1,low,low,12,reverse-stroop,A,2450,False,125,1010,2026-02-02T22:53:13.644Z,-0.19758925954921822,-0.8925645733636959,0.9910760598382222,-0.3615499120885882,0
AUA-20260202-225153-508,Raisa,25,F,employed,humanities,master,4,no,occasionally,right,20,1,low,low,12,numerical-stroop,B,200,False,125,1135,2026-02-02T22:53:14.639Z,-1.207988882244084,-0.23629879176090596,0.9709505944546686,-0.23634893054837913,0
AUA-20260202-225153-508,Raisa,25,F,employed,humanities,master,4,no,occasionally,right,21,2,low,high,12,flanker,B,3242,False,125,1260,2026-02-02T22:53:18.756Z,0.15807140763937458,0.0004939731488730504,0.9709505944546686,-0.43231568426349,0
AUA-20260202-225153-508,Raisa,25,F,employed,humanities,master,4,no,occasionally,right,22,2,low,high,12,number-word,B,4322,False,125,1385,2026-02-02T22:53:23.174Z,0.6430632265329101,0.2307303671736098,0.8812908992306927,-0.6282824379786008,0
AUA-20260202-225153-508,Raisa,25,F,employed,humanities,master,4,no,occasionally,right,23,2,low,high,12,gamble,B,5851,False,135,1520,2026-02-02T22:53:29.251Z,1.3296859034664434,0.49056024348083177,0.8812908992306927,-0.5302990611210454,0
AUA-20260202-225153-508,Raisa,25,F,employed,humanities,master,4,no,occasionally,right,24,2,low,high,12,gamble,A,1750,False,150,1670,2026-02-02T22:53:32.142Z,-0.5119358088320654,0.25637206426511067,0.9709505944546686,-0.08937386526204603,0
AUA-20260202-225153-508,Raisa,25,F,employed,humanities,master,4,no,occasionally,right,25,2,low,high,12,stroop,B,2777,False,125,1795,2026-02-02T22:53:35.489Z,-0.05074451438423104,-0.15726308794121868,0.9709505944546686,1.2334017223149518,0
AUA-20260202-225153-508,Raisa,25,F,employed,humanities,master,4,no,occasionally,right,26,2,low,high,12,number-word,B,3897,False,5,1800,2026-02-02T22:53:40.624Z,0.4522099644683244,-0.1762136941979846,0.9709505944546686,0.05760120002428707,0
AUA-20260202-225153-508,Raisa,25,F,employed,humanities,master,4,no,occasionally,right,27,2,low,high,12,crt,B,6007,False,145,1945,2026-02-02T22:53:47.583Z,1.3997402773066208,0.11042545209807444,0.8812908992306927,0.2535679537393979,0
AUA-20260202-225153-508,Raisa,25,F,employed,humanities,master,4,no,occasionally,right,28,2,low,high,12,gamble,A,3934,False,159,2104,2026-02-02T22:53:52.379Z,0.4688254249304178,0.34120072592158185,0.8812908992306927,0.5867114350550868,0
AUA-20260202-225153-508,Raisa,25,F,employed,humanities,master,4,no,occasionally,right,29,2,low,high,12,stroop,B,1391,False,125,2229,2026-02-02T22:53:54.210Z,-0.6731506819642684,-0.12281968746979813,0.7219280948873623,0.5867114350550868,0
AUA-20260202-225153-508,Raisa,25,F,employed,humanities,master,4,no,occasionally,right,30,2,low,high,12,number-word,A,2683,False,125,2354,2026-02-02T22:53:57.777Z,-0.09295676528792766,-0.31632244187833936,0.8812908992306927,0.5867114350550868,0
AUA-20260202-225153-508,Raisa,25,F,employed,humanities,master,4,no,occasionally,right,31,3,high,low,7,number-word,A,2421,False,125,2479,2026-02-02T22:54:01.388Z,-0.2106121880195076,-0.3782487120870602,0.9709505944546686,0.5867114350550868,0
AUA-20260202-225153-508,Raisa,25,F,employed,humanities,master,4,no,occasionally,right,32,3,high,low,7,crt,,7000,True,-10,2469,2026-02-02T22:54:08.370Z,1.8456633107892884,0.32162142656625026,0.9709505944546686,-0.7360641525219112,1
AUA-20260202-225153-508,Raisa,25,F,employed,humanities,master,4,no,occasionally,right,33,3,high,low,7,reverse-stroop,B,1703,False,125,2594,2026-02-02T22:54:11.442Z,-0.5330419342839137,0.2218837571437926,0.9709505944546686,-0.8340475293794666,0
AUA-20260202-225153-508,Raisa,25,F,employed,humanities,master,4,no,occasionally,right,34,3,high,low,7,flanker,B,3121,False,125,2719,2026-02-02T22:54:14.973Z,0.10373436126333957,0.007095250683812854,0.8812908992306927,-1.079005971523355,0
AUA-20260202-225153-508,Raisa,25,F,employed,humanities,master,4,no,occasionally,right,35,3,high,low,7,stroop,A,354,False,125,2844,2026-02-02T22:54:16.246Z,-1.1388326414018577,-0.3598369856290649,0.9709505944546686,-1.079005971523355,0
AUA-20260202-225153-508,Raisa,25,F,employed,humanities,master,4,no,occasionally,right,36,3,high,low,7,reverse-stroop,B,932,False,125,2969,2026-02-02T22:54:17.052Z,-0.879272204994021,-0.6055661738684563,0.9709505944546686,0.09679455076730979,0
AUA-20260202-225153-508,Raisa,25,F,employed,humanities,master,4,no,occasionally,right,37,3,high,low,7,number-word,B,3534,False,125,3094,2026-02-02T22:54:21.984Z,0.2891988253402194,0.06614749529909057,0.9709505944546686,-0.09917220294780102,0
AUA-20260202-225153-508,Raisa,25,F,employed,humanities,master,4,no,occasionally,right,38,3,high,low,7,reverse-stroop,B,1464,False,125,3219,2026-02-02T22:54:23.177Z,-0.6403688275390572,-0.006017491086271642,0.8812908992306927,-0.43231568426349,0
AUA-20260202-225153-508,Raisa,25,F,employed,humanities,master,4,no,occasionally,right,39,3,high,low,7,numerical-stroop,A,2228,False,125,3344,2026-02-02T22:54:27.649Z,-0.2972820223217783,0.19220046156151227,0.9709505944546686,-0.43231568426349,0
AUA-20260202-225153-508,Raisa,25,F,employed,humanities,master,4,no,occasionally,right,40,3,high,low,7,flanker,B,1291,False,125,3469,2026-02-02T22:54:28.634Z,-0.718057331861818,-0.026405110139759158,0.8812908992306927,-0.43231568426349,0
AUA-20260202-225153-508,Raisa,25,F,employed,humanities,master,4,no,occasionally,right,41,4,high,high,7,number-word,A,2887,False,5,3474,2026-02-02T22:54:32.690Z,-0.001347199496926488,-0.06587805539970525,0.8812908992306927,-1.6081162065541548,0
AUA-20260202-225153-508,Raisa,25,F,employed,humanities,master,4,no,occasionally,right,42,4,high,high,7,crt,B,1857,False,145,3619,2026-02-02T22:54:35.499Z,-0.4638856934416873,0.06489010910195918,0.8812908992306927,-0.08937386526204603,0
AUA-20260202-225153-508,Raisa,25,F,employed,humanities,master,4,no,occasionally,right,43,4,high,high,7,numerical-stroop,B,1016,False,125,3744,2026-02-02T22:54:37.643Z,-0.8415506190800794,-0.08343655550964717,0.8812908992306927,-0.08937386526204603,0
AUA-20260202-225153-508,Raisa,25,F,employed,humanities,master,4,no,occasionally,right,44,4,high,high,7,number-word,A,1631,False,125,3869,2026-02-02T22:54:40.805Z,-0.5653747222101494,-0.05348382002798158,0.9709505944546686,-0.08937386526204603,0
AUA-20260202-225153-508,Raisa,25,F,employed,humanities,master,4,no,occasionally,right,45,4,high,high,7,gamble,A,2656,False,159,4028,2026-02-02T22:54:43.733Z,-0.10508156076026605,-0.030895775129514115,0.9709505944546686,0.2437696160536429,0
AUA-20260202-225153-508,Raisa,25,F,employed,humanities,master,4,no,occasionally,right,46,4,high,high,7,stroop,B,1817,False,125,4153,2026-02-02T22:54:46.127Z,-0.48184835340070714,0.07005437384017736,0.9709505944546686,0.2437696160536429,0
AUA-20260202-225153-508,Raisa,25,F,employed,humanities,master,4,no,occasionally,right,47,4,high,high,7,flanker,A,200,False,125,4278,2026-02-02T22:54:46.731Z,-1.207988882244084,-0.0649350157518567,1.0,0.2437696160536429,0
AUA-20260202-225153-508,Raisa,25,F,employed,humanities,master,4,no,occasionally,right,48,4,high,high,7,crt,A,595,False,145,4423,2026-02-02T22:54:47.019Z,-1.030607615148763,-0.20333731073610456,0.9709505944546686,0.4397363697687537,0
AUA-20260202-225153-508,Raisa,25,F,employed,humanities,master,4,no,occasionally,right,49,4,high,high,7,stroop,,7000,True,-10,4413,2026-02-02T22:54:55.448Z,1.8456633107892884,0.33527304813510533,1.0,-0.8830392178082443,1
AUA-20260202-225153-508,Raisa,25,F,employed,humanities,master,4,no,occasionally,right,50,4,high,high,7,crt,B,1453,False,145,4558,2026-02-02T22:54:57.500Z,-0.6453085590277877,0.27267317817792114,1.0,-0.6870724640931335,0
AUA-20260203-084744-658,Margarit,27,F,both,stem,highschool,5,yes,occasionally,right,11,1,low,low,12,numerical-stroop,B,1131,False,125,125,2026-02-03T08:48:28.459Z,-1.0583423657485087,0.0,3.4661976109059578e-09,0.08708126656361781,0
AUA-20260203-084744-658,Margarit,27,F,both,stem,highschool,5,yes,occasionally,right,12,1,low,low,12,number-word,B,4146,False,125,250,2026-02-03T08:48:32.032Z,1.117297516112708,0.0,3.4661976109059578e-09,0.08708126656361781,0
AUA-20260203-084744-658,Margarit,27,F,both,stem,highschool,5,yes,occasionally,right,13,1,low,low,12,flanker,A,2493,False,125,375,2026-02-03T08:48:36.369Z,-0.07551599125597894,0.0,0.9182958340544896,0.08708126656361781,0
AUA-20260203-084744-658,Margarit,27,F,both,stem,highschool,5,yes,occasionally,right,14,1,low,low,12,stroop,B,2023,False,125,500,2026-02-03T08:48:38.476Z,-0.4146704670353394,0.0,0.8112781244591328,0.08708126656361781,0
AUA-20260203-084744-658,Margarit,27,F,both,stem,highschool,5,yes,occasionally,right,15,1,low,low,12,flanker,A,2277,False,125,625,2026-02-03T08:48:42.988Z,-0.23138272906096163,0.012195129022704705,0.9709505944546686,0.08708126656361781,0
AUA-20260203-084744-658,Margarit,27,F,both,stem,highschool,5,yes,occasionally,right,16,1,low,low,12,stroop,A,2869,False,125,750,2026-02-03T08:48:45.194Z,0.19580758936750942,-0.19988465912953798,1.0,0.08708126656361781,0
AUA-20260203-084744-658,Margarit,27,F,both,stem,highschool,5,yes,occasionally,right,17,1,low,low,12,crt,A,6107,False,145,895,2026-02-03T08:48:52.579Z,2.5323654459070184,0.5826240930728844,0.9852281360342515,0.4946114058278683,0
AUA-20260203-084744-658,Margarit,27,F,both,stem,highschool,5,yes,occasionally,right,18,1,low,low,12,stroop,B,2798,False,125,1020,2026-02-03T08:48:55.145Z,0.14457361536679753,0.38822363397722537,1.0,0.44367013841983644,0
AUA-20260203-084744-658,Margarit,27,F,both,stem,highschool,5,yes,occasionally,right,19,1,low,low,12,stroop,B,4094,False,125,1145,2026-02-03T08:49:00.417Z,1.0797740421966937,0.25710795685145993,0.9910760598382222,0.40404915265803526,0
AUA-20260203-084744-658,Margarit,27,F,both,stem,highschool,5,yes,occasionally,right,20,1,low,low,12,crt,A,4986,False,145,1290,2026-02-03T08:49:07.987Z,1.7234459409098628,0.16026852993743823,1.0,0.6576234615335675,0
AUA-20260203-084744-658,Margarit,27,F,both,stem,highschool,5,yes,occasionally,right,21,2,low,high,12,stroop,A,2948,False,125,1415,2026-02-03T08:49:11.230Z,0.25281440550914663,-0.29802297552526785,0.9709505944546686,0.6576234615335675,0
AUA-20260203-084744-658,Margarit,27,F,both,stem,highschool,5,yes,occasionally,right,22,2,low,high,12,crt,B,3010,False,145,1560,2026-02-03T08:49:14.369Z,0.2975539321013176,-0.05209990032185068,0.9709505944546686,0.9428945590185425,0
AUA-20260203-084744-658,Margarit,27,F,both,stem,highschool,5,yes,occasionally,right,23,2,low,high,12,stroop,A,2413,False,125,1685,2026-02-03T08:49:18.084Z,-0.1332444126652318,-0.3851928918532396,0.9709505944546686,0.9428945590185425,0
AUA-20260203-084744-658,Margarit,27,F,both,stem,highschool,5,yes,occasionally,right,24,2,low,high,12,stroop,B,2384,False,125,1810,2026-02-03T08:49:21.278Z,-0.15417096542608594,-0.4141292630846276,0.9709505944546686,0.9428945590185425,0
AUA-20260203-084744-658,Margarit,27,F,both,stem,highschool,5,yes,occasionally,right,25,2,low,high,12,reverse-stroop,A,2940,False,125,1935,2026-02-03T08:49:24.690Z,0.24704156336822133,-0.04632705818092541,0.9709505944546686,0.9428945590185425,0
AUA-20260203-084744-658,Margarit,27,F,both,stem,highschool,5,yes,occasionally,right,26,2,low,high,12,stroop,A,1204,False,125,2060,2026-02-03T08:49:26.945Z,-1.0056651812125654,-0.2226152250594313,0.9709505944546686,0.9428945590185425,0
AUA-20260203-084744-658,Margarit,27,F,both,stem,highschool,5,yes,occasionally,right,27,2,low,high,12,stroop,A,1511,False,125,2185,2026-02-03T08:49:29.137Z,-0.7841323640545576,-0.21532701185651312,0.9709505944546686,0.6576234615335675,0
AUA-20260203-084744-658,Margarit,27,F,both,stem,highschool,5,yes,occasionally,right,28,2,low,high,12,reverse-stroop,B,2934,False,125,2310,2026-02-03T08:49:32.391Z,0.24271193176252737,-0.02374081330455522,0.9709505944546686,0.6576234615335675,0
AUA-20260203-084744-658,Margarit,27,F,both,stem,highschool,5,yes,occasionally,right,29,2,low,high,12,stroop,B,3330,False,125,2435,2026-02-03T08:49:36.824Z,0.528467617738329,0.1811229221715308,0.9709505944546686,0.6576234615335675,0
AUA-20260203-084744-658,Margarit,27,F,both,stem,highschool,5,yes,occasionally,right,30,2,low,high,12,numerical-stroop,B,2838,False,125,2560,2026-02-03T08:49:40.621Z,0.17343782607142394,0.3670805996360865,1.0,0.37235236404859273,0
AUA-20260203-084744-658,Margarit,27,F,both,stem,highschool,5,yes,occasionally,right,31,3,high,low,7,gamble,B,2910,False,155,2715,2026-02-03T08:49:43.219Z,0.2253934053397515,0.19497774330975148,0.9709505944546686,0.8002590102760551,0
AUA-20260203-084744-658,Margarit,27,F,both,stem,highschool,5,yes,occasionally,right,32,3,high,low,7,numerical-stroop,B,2814,False,125,2840,2026-02-03T08:49:47.265Z,0.1561192996486481,-0.0476259476626336,0.9709505944546686,0.5149879127910801,0
AUA-20260203-084744-658,Margarit,27,F,both,stem,highschool,5,yes,occasionally,right,33,3,high,low,7,stroop,B,816,False,125,2965,2026-02-03T08:49:48.033Z,-1.2856480250474418,-0.36455498119943175,0.8812908992306927,0.5149879127910801,0
AUA-20260203-084744-658,Margarit,27,F,both,stem,highschool,5,yes,occasionally,right,34,3,high,low,7,flanker,A,2133,False,125,3090,2026-02-03T08:49:51.413Z,-0.33529388759761675,-0.2528504857725275,0.9709505944546686,0.5149879127910801,0
AUA-20260203-084744-658,Margarit,27,F,both,stem,highschool,5,yes,occasionally,right,35,3,high,low,7,flanker,B,276,False,125,3215,2026-02-03T08:49:52.640Z,-1.6753148695598985,-0.42928297370455654,0.8812908992306927,0.5149879127910801,0
AUA-20260203-084744-658,Margarit,27,F,both,stem,highschool,5,yes,occasionally,right,36,3,high,low,7,stroop,A,1374,False,125,3340,2026-02-03T08:49:54.447Z,-0.8829922857179031,-0.24678900152455593,0.8812908992306927,0.5149879127910801,0
AUA-20260203-084744-658,Margarit,27,F,both,stem,highschool,5,yes,occasionally,right,37,3,high,low,7,reverse-stroop,B,2310,False,125,3465,2026-02-03T08:49:57.280Z,-0.20756975522964483,0.16084581415153076,0.7219280948873623,0.5149879127910801,0
AUA-20260203-084744-658,Margarit,27,F,both,stem,highschool,5,yes,occasionally,right,38,3,high,low,7,numerical-stroop,A,1531,False,125,3590,2026-02-03T08:49:59.761Z,-0.7697002587022443,0.059893237212099854,0.8812908992306927,0.5149879127910801,0
AUA-20260203-084744-658,Margarit,27,F,both,stem,highschool,5,yes,occasionally,right,39,3,high,low,7,crt,A,3161,False,145,3735,2026-02-03T08:50:03.223Z,0.4065163275112823,0.42769544211580207,0.9709505944546686,0.8002590102760551,0
AUA-20260203-084744-658,Margarit,27,F,both,stem,highschool,5,yes,occasionally,right,40,3,high,low,7,stroop,A,200,False,125,3860,2026-02-03T08:50:05.731Z,-1.7301568698986887,-0.10802430856206438,1.0,0.8002590102760551,0
AUA-20260203-084744-658,Margarit,27,F,both,stem,highschool,5,yes,occasionally,right,41,4,high,high,7,gamble,,7000,True,-10,3850,2026-02-03T08:50:13.585Z,3.1767589498878035,0.5808200799038453,1.0,-1.5532275439749879,1
AUA-20260203-084744-658,Margarit,27,F,both,stem,highschool,5,yes,occasionally,right,42,4,high,high,7,crt,A,1952,False,145,3995,2026-02-03T08:50:15.023Z,-0.4659044410360513,0.33778342577089077,0.9709505944546686,-1.267956446490013,0
AUA-20260203-084744-658,Margarit,27,F,both,stem,highschool,5,yes,occasionally,right,43,4,high,high,7,flanker,A,2578,False,125,4120,2026-02-03T08:50:18.506Z,-0.014179543508647795,0.042286068682277744,0.8812908992306927,-1.267956446490013,0
AUA-20260203-084744-658,Margarit,27,F,both,stem,highschool,5,yes,occasionally,right,44,4,high,high,7,reverse-stroop,B,2112,False,125,4245,2026-02-03T08:50:22.733Z,-0.3504475982175456,-0.0431519950034165,0.9709505944546686,-1.267956446490013,0
AUA-20260203-084744-658,Margarit,27,F,both,stem,highschool,5,yes,occasionally,right,45,4,high,high,7,number-word,B,652,False,125,4370,2026-02-03T08:50:23.887Z,-1.4039912889364101,-0.9046043634829921,0.9709505944546686,-1.267956446490013,0
AUA-20260203-084744-658,Margarit,27,F,both,stem,highschool,5,yes,occasionally,right,46,4,high,high,7,gamble,A,2011,False,105,4475,2026-02-03T08:50:26.023Z,-0.4233297302467273,-0.13046623238491148,0.9709505944546686,-1.5532275439749879,0
AUA-20260203-084744-658,Margarit,27,F,both,stem,highschool,5,yes,occasionally,right,47,4,high,high,7,gamble,A,4187,False,115,4590,2026-02-03T08:50:30.740Z,1.14688333208495,0.22492436191580142,0.8812908992306927,-1.6958630927174754,0
AUA-20260203-084744-658,Margarit,27,F,both,stem,highschool,5,yes,occasionally,right,48,4,high,high,7,gamble,A,2626,False,115,4705,2026-02-03T08:50:34.094Z,0.02045750933690391,0.32926848361302596,0.8812908992306927,-1.838498641459963,0
AUA-20260203-084744-658,Margarit,27,F,both,stem,highschool,5,yes,occasionally,right,49,4,high,high,7,number-word,B,1803,False,125,4830,2026-02-03T08:50:36.153Z,-0.5734236259107848,0.2104922565634882,0.9709505944546686,-2.123769738944938,0
AUA-20260203-084744-658,Margarit,27,F,both,stem,highschool,5,yes,occasionally,right,50,4,high,high,7,gamble,B,3024,False,105,4935,2026-02-03T08:50:39.371Z,0.3076564058479368,-0.02583346858064067,1.0,-2.4090408364299125,0
AUA-20260203-161818-565,CognitivePro,45,F,employed,business,master,5,yes,regularly,right,11,1,low,low,12,numerical-stroop,A,1109,False,125,125,2026-02-03T16:19:06.755Z,-0.9703518831960857,0.0,3.4661978738266075e-09,0.9656838521652824,0
AUA-20260203-161818-565,CognitivePro,45,F,employed,business,master,5,yes,regularly,right,12,1,low,low,12,reverse-stroop,B,1580,False,125,250,2026-02-03T16:19:08.024Z,-0.7839284303549384,0.0,1.0,0.9656838521652824,0
AUA-20260203-161818-565,CognitivePro,45,F,employed,business,master,5,yes,regularly,right,13,1,low,low,12,crt,B,4542,False,145,395,2026-02-03T16:19:13.407Z,0.3884415639454391,0.0,0.9182958340544896,1.298840691067184,0
AUA-20260203-161818-565,CognitivePro,45,F,employed,business,master,5,yes,regularly,right,14,1,low,low,12,reverse-stroop,A,2509,False,125,520,2026-02-03T16:19:17.834Z,-0.4162269702924635,0.0,1.0,1.215551481341709,0
AUA-20260203-161818-565,CognitivePro,45,F,employed,business,master,5,yes,regularly,right,15,1,low,low,12,numerical-stroop,,12000,True,-10,510,2026-02-03T16:19:30.544Z,3.340344135684877,0.89890934978244,0.9709505944546686,-0.18370724204627953,1
AUA-20260203-161818-565,CognitivePro,45,F,employed,business,master,5,yes,regularly,right,16,1,low,low,12,reverse-stroop,A,1979,False,125,635,2026-02-03T16:19:32.416Z,-0.6260028301774062,0.3267753772094502,1.0,0.007857940322313912,0
AUA-20260203-161818-565,CognitivePro,45,F,employed,business,master,5,yes,regularly,right,17,1,low,low,12,number-word,A,5882,False,125,760,2026-02-03T16:19:38.056Z,0.9188182662960488,0.08509775448162767,0.9852281360342515,0.14469021344273808,0
AUA-20260203-161818-565,CognitivePro,45,F,employed,business,master,5,yes,regularly,right,18,1,low,low,12,gamble,,12000,True,-10,750,2026-02-03T16:19:51.223Z,3.340344135684877,0.5091616342565853,1.0,-0.5959888301873832,1
AUA-20260203-161818-565,CognitivePro,45,F,employed,business,master,5,yes,regularly,right,19,1,low,low,12,stroop,B,3417,False,125,875,2026-02-03T16:19:55.528Z,-0.056837383923542914,-0.28280160733545573,0.9910760598382222,-0.42246964325930897,0
AUA-20260203-161818-565,CognitivePro,45,F,employed,business,master,5,yes,regularly,right,20,1,low,low,12,reverse-stroop,A,2792,False,125,1000,2026-02-03T16:19:59.478Z,-0.3042145771840885,-0.033207914423295605,1.0,-0.28365429371685014,0
AUA-20260203-161818-565,CognitivePro,45,F,employed,business,master,5,yes,regularly,right,21,2,low,high,12,reverse-stroop,A,4327,False,125,1125,2026-02-03T16:20:04.223Z,0.30334380946381145,-0.4875507626533441,1.0,-0.28365429371685014,0
AUA-20260203-161818-565,CognitivePro,45,F,employed,business,master,5,yes,regularly,right,22,2,low,high,12,gamble,B,4550,False,159,1284,2026-02-03T16:20:09.114Z,0.3916079920191741,-0.5537291093944051,1.0,-0.11374430587687981,0
AUA-20260203-161818-565,CognitivePro,45,F,employed,business,master,5,yes,regularly,right,23,2,low,high,12,numerical-stroop,A,3123,False,125,1409,2026-02-03T16:20:12.183Z,-0.17320361563330355,0.04630901057837414,0.9709505944546686,-0.2136913575474504,0
AUA-20260203-161818-565,CognitivePro,45,F,employed,business,master,5,yes,regularly,right,24,2,low,high,12,number-word,B,3210,False,125,1534,2026-02-03T16:20:16.401Z,-0.13876871033143562,-0.014565569139180924,1.0,-0.2136913575474504,0
AUA-20260203-161818-565,CognitivePro,45,F,employed,business,master,5,yes,regularly,right,25,2,low,high,12,reverse-stroop,B,1714,False,125,1659,2026-02-03T16:20:19.854Z,-0.7308907601198775,-0.25988458415179877,1.0,0.4609512412289012,0
AUA-20260203-161818-565,CognitivePro,45,F,employed,business,master,5,yes,regularly,right,26,2,low,high,12,stroop,A,2660,False,125,1784,2026-02-03T16:20:22.722Z,-0.35646064040071573,-0.20538244093263539,1.0,0.4609512412289012,0
AUA-20260203-161818-565,CognitivePro,45,F,employed,business,master,5,yes,regularly,right,27,2,low,high,12,gamble,B,2410,False,125,1909,2026-02-03T16:20:25.032Z,-0.45541151770493393,-0.0782107734212541,0.9709505944546686,0.4609512412289012,0
AUA-20260203-161818-565,CognitivePro,45,F,employed,business,master,5,yes,regularly,right,28,2,low,high,12,stroop,B,4373,False,125,2034,2026-02-03T16:20:31.481Z,0.3215507708877876,0.11961182048533901,0.9709505944546686,1.1355938400052528,0
AUA-20260203-161818-565,CognitivePro,45,F,employed,business,master,5,yes,regularly,right,29,2,low,high,12,stroop,A,2156,False,125,2159,2026-02-03T16:20:33.904Z,-0.5559456090460196,0.1027901713436219,1.0,1.1355938400052528,0
AUA-20260203-161818-565,CognitivePro,45,F,employed,business,master,5,yes,regularly,right,30,2,low,high,12,crt,A,3257,False,145,2304,2026-02-03T16:20:37.372Z,-0.12016594539824259,0.037205529866386054,1.0,1.2355408916758233,0
AUA-20260203-161818-565,CognitivePro,45,F,employed,business,master,5,yes,regularly,right,31,3,high,low,7,flanker,B,3153,False,125,2429,2026-02-03T16:20:41.456Z,-0.16132951035679738,0.01464472984102429,0.9709505944546686,1.2355408916758233,0
AUA-20260203-161818-565,CognitivePro,45,F,employed,business,master,5,yes,regularly,right,32,3,high,low,7,stroop,A,2992,False,125,2554,2026-02-03T16:20:45.821Z,-0.22505387534071392,-0.06985931937677807,1.0,1.0656309038358531,0
AUA-20260203-161818-565,CognitivePro,45,F,employed,business,master,5,yes,regularly,right,33,3,high,low,7,crt,B,4104,False,145,2699,2026-02-03T16:20:50.550Z,0.21507962690844878,0.14371625419664658,0.9709505944546686,1.1655779555064236,0
AUA-20260203-161818-565,CognitivePro,45,F,employed,business,master,5,yes,regularly,right,34,3,high,low,7,number-word,B,1744,False,125,2824,2026-02-03T16:20:53.861Z,-0.7190166548433713,-0.08212922816250112,0.9709505944546686,1.1655779555064236,0
AUA-20260203-161818-565,CognitivePro,45,F,employed,business,master,5,yes,regularly,right,35,3,high,low,7,crt,,7000,True,-10,2814,2026-02-03T16:21:00.898Z,1.3613265896005127,0.2551349420411963,0.9709505944546686,0.4909353567300721,1
AUA-20260203-161818-565,CognitivePro,45,F,employed,business,master,5,yes,regularly,right,36,3,high,low,7,reverse-stroop,,7000,True,-10,2804,2026-02-03T16:21:08.887Z,1.3613265896005127,0.4319007892574518,0.8812908992306927,-0.18370724204627953,1
AUA-20260203-161818-565,CognitivePro,45,F,employed,business,master,5,yes,regularly,right,37,3,high,low,7,numerical-stroop,B,2200,False,5,2809,2026-02-03T16:21:11.762Z,-0.5385302546404772,0.057312348134603244,0.8812908992306927,-0.7833895520697032,0
AUA-20260203-161818-565,CognitivePro,45,F,employed,business,master,5,yes,regularly,right,38,3,high,low,7,flanker,A,425,False,5,2814,2026-02-03T16:21:12.674Z,-1.2410814835004267,-0.2943986501555101,0.9709505944546686,-1.3830718620931268,0
AUA-20260203-161818-565,CognitivePro,45,F,employed,business,master,5,yes,regularly,right,39,3,high,low,7,flanker,A,1927,False,125,2939,2026-02-03T16:21:15.005Z,-0.6465846126566835,-0.6618230477615333,0.9709505944546686,-1.3830718620931268,0
AUA-20260203-161818-565,CognitivePro,45,F,employed,business,master,5,yes,regularly,right,40,3,high,low,7,gamble,A,3572,False,150,3089,2026-02-03T16:21:19.211Z,0.004512160005072387,-0.2821683217207087,0.9709505944546686,-1.3580850991754843,0
AUA-20260203-161818-565,CognitivePro,45,F,employed,business,master,5,yes,regularly,right,41,4,high,high,7,gamble,A,1839,False,125,3214,2026-02-03T16:21:21.366Z,-0.6814153214677684,0.09598235098509167,1.0,-1.3580850991754843,0
AUA-20260203-161818-565,CognitivePro,45,F,employed,business,master,5,yes,regularly,right,42,4,high,high,7,gamble,A,1473,False,115,3329,2026-02-03T16:21:24.361Z,-0.8262794058411439,0.07947734465074807,1.0,-1.4080586250107696,0
AUA-20260203-161818-565,CognitivePro,45,F,employed,business,master,5,yes,regularly,right,43,4,high,high,7,reverse-stroop,,7000,True,-10,3319,2026-02-03T16:21:31.887Z,1.3613265896005127,0.31850308386681764,1.0,-2.1826482754576917,1
AUA-20260203-161818-565,CognitivePro,45,F,employed,business,master,5,yes,regularly,right,44,4,high,high,7,gamble,A,3256,False,145,3464,2026-02-03T16:21:35.205Z,-0.12056174890745945,0.17925940932432172,0.9709505944546686,-2.082701223787121,0
AUA-20260203-161818-565,CognitivePro,45,F,employed,business,master,5,yes,regularly,right,45,4,high,high,7,stroop,A,3343,False,125,3589,2026-02-03T16:21:39.541Z,-0.08612684360559152,0.18962946126580382,0.8812908992306927,-1.4080586250107696,0
AUA-20260203-161818-565,CognitivePro,45,F,employed,business,master,5,yes,regularly,right,46,4,high,high,7,gamble,B,2464,False,150,3739,2026-02-03T16:21:42.543Z,-0.4340381282072228,-0.06629708779382619,0.8812908992306927,-0.6084822116462046,0
AUA-20260203-161818-565,CognitivePro,45,F,employed,business,master,5,yes,regularly,right,47,4,high,high,7,reverse-stroop,A,1943,False,125,3864,2026-02-03T16:21:44.850Z,-0.6402517565092136,-0.4316633071519216,0.7219280948873623,-0.008799901622780952,0
AUA-20260203-161818-565,CognitivePro,45,F,employed,business,master,5,yes,regularly,right,48,4,high,high,7,crt,B,1533,False,145,4009,2026-02-03T16:21:47.148Z,-0.8025311952881315,-0.19180638056649663,0.8812908992306927,0.6908294600712134,0
AUA-20260203-161818-565,CognitivePro,45,F,employed,business,master,5,yes,regularly,right,49,4,high,high,7,gamble,B,4627,False,115,4124,2026-02-03T16:21:52.351Z,0.4220848622288733,0.06479303445880209,0.9709505944546686,0.640855934235928,0
AUA-20260203-161818-565,CognitivePro,45,F,employed,business,master,5,yes,regularly,right,50,4,high,high,7,stroop,B,1239,False,125,4249,2026-02-03T16:21:54.926Z,-0.9188974269978921,0.009261802115674834,1.0,0.5159221196477147,0
AUA-20260204-183505-496,Tatevik,31,F,student,stem,bachelor_complete,4,yes,occasionally,both,11,1,low,low,12,flanker,B,937,False,125,125,2026-02-04T18:35:42.487Z,-0.9115447211537572,0.0,3.4661976109059578e-09,0.8654743328983957,0
AUA-20260204-183505-496,Tatevik,31,F,student,stem,bachelor_complete,4,yes,occasionally,both,12,1,low,low,12,numerical-stroop,B,2283,False,5,130,2026-02-04T18:35:46.284Z,-0.26212142667679794,0.0,3.4661976109059578e-09,-3.6182340415820824,0
AUA-20260204-183505-496,Tatevik,31,F,student,stem,bachelor_complete,4,yes,occasionally,both,13,1,low,low,12,number-word,A,1747,False,125,255,2026-02-04T18:35:48.148Z,-0.5207327831698515,0.0,0.9182958340544896,-2.1236645834219225,0
AUA-20260204-183505-496,Tatevik,31,F,student,stem,bachelor_complete,4,yes,occasionally,both,14,1,low,low,12,gamble,B,3121,False,145,400,2026-02-04T18:35:51.942Z,0.14220005978062536,0.0,0.8112781244591328,-1.0027374898018033,0
AUA-20260204-183505-496,Tatevik,31,F,student,stem,bachelor_complete,4,yes,occasionally,both,15,1,low,low,12,stroop,A,4602,False,125,525,2026-02-04T18:35:57.767Z,0.8567586772549022,0.3940928283274742,0.9709505944546686,-0.6290951252617635,0
AUA-20260204-183505-496,Tatevik,31,F,student,stem,bachelor_complete,4,yes,occasionally,both,16,1,low,low,12,flanker,A,3992,False,125,650,2026-02-04T18:36:01.919Z,0.5624435140818375,0.30266213419420246,1.0,-0.3800002155684041,0
AUA-20260204-183505-496,Tatevik,31,F,student,stem,bachelor_complete,4,yes,occasionally,both,17,1,low,low,12,numerical-stroop,A,3060,False,125,775,2026-02-04T18:36:06.880Z,0.1127685434633189,0.16872461075675532,0.9852281360342515,-0.20207528007314712,0
AUA-20260204-183505-496,Tatevik,31,F,student,stem,bachelor_complete,4,yes,occasionally,both,18,1,low,low,12,reverse-stroop,B,2789,False,125,900,2026-02-04T18:36:09.059Z,-0.017984586405370515,-0.10643594261635753,1.0,-0.06863157845170388,0
AUA-20260204-183505-496,Tatevik,31,F,student,stem,bachelor_complete,4,yes,occasionally,both,19,1,low,low,12,stroop,B,2462,False,125,1025,2026-02-04T18:36:12.623Z,-0.17575681322109538,-0.2645459081439203,0.9910760598382222,0.0351579672538625,0
AUA-20260204-183505-496,Tatevik,31,F,student,stem,bachelor_complete,4,yes,occasionally,both,20,1,low,low,12,gamble,B,2246,False,150,1175,2026-02-04T18:36:15.629Z,-0.2799733300168035,-0.19733590448816965,0.9709505944546686,0.30501078608833593,0
AUA-20260204-183505-496,Tatevik,31,F,student,stem,bachelor_complete,4,yes,occasionally,both,21,2,low,high,12,flanker,A,1166,False,125,1300,2026-02-04T18:36:17.297Z,-0.8010559139953444,-0.20896376585287593,1.0,0.30501078608833593,0
AUA-20260204-183505-496,Tatevik,31,F,student,stem,bachelor_complete,4,yes,occasionally,both,22,2,low,high,12,gamble,,12000,True,-10,1290,2026-02-04T18:36:30.476Z,4.426174377507907,0.8263018827052306,1.0,0.192918076726324,1
AUA-20260204-183505-496,Tatevik,31,F,student,stem,bachelor_complete,4,yes,occasionally,both,23,2,low,high,12,number-word,B,4802,False,125,1415,2026-02-04T18:36:35.358Z,0.953255452065743,0.696417223809839,0.9709505944546686,0.192918076726324,0
AUA-20260204-183505-496,Tatevik,31,F,student,stem,bachelor_complete,4,yes,occasionally,both,24,2,low,high,12,flanker,A,3331,False,125,1540,2026-02-04T18:36:39.260Z,0.2435216733320083,0.2801301372758711,1.0,0.04346113091030806,0
AUA-20260204-183505-496,Tatevik,31,F,student,stem,bachelor_complete,4,yes,occasionally,both,25,2,low,high,12,crt,A,3771,False,145,1685,2026-02-04T18:36:43.405Z,0.4558145779158583,-0.1668911720353494,1.0,0.192918076726324,0
AUA-20260204-183505-496,Tatevik,31,F,student,stem,bachelor_complete,4,yes,occasionally,both,26,2,low,high,12,crt,A,5976,False,145,1830,2026-02-04T18:36:50.853Z,1.5196915202053791,-0.6310406588754941,1.0,0.3423750225423399,0
AUA-20260204-183505-496,Tatevik,31,F,student,stem,bachelor_complete,4,yes,occasionally,both,27,2,low,high,12,numerical-stroop,B,1319,False,125,1955,2026-02-04T18:36:52.471Z,-0.727235881265051,-0.20848128197882174,0.9709505944546686,0.3423750225423399,0
AUA-20260204-183505-496,Tatevik,31,F,student,stem,bachelor_complete,4,yes,occasionally,both,28,2,low,high,12,gamble,A,1405,False,155,2110,2026-02-04T18:36:55.057Z,-0.6857422680963895,-0.3041578342037705,1.0,0.5665604412663637,0
AUA-20260204-183505-496,Tatevik,31,F,student,stem,bachelor_complete,4,yes,occasionally,both,29,2,low,high,12,gamble,B,3161,False,135,2245,2026-02-04T18:36:59.701Z,0.16149941474279353,-0.2794064114647898,1.0,0.6412889141743718,0
AUA-20260204-183505-496,Tatevik,31,F,student,stem,bachelor_complete,4,yes,occasionally,both,30,2,low,high,12,numerical-stroop,B,3432,False,5,2250,2026-02-04T18:37:03.287Z,0.2922525446114829,-0.1566142655179948,1.0,-0.44227394299174366,0
AUA-20260204-183505-496,Tatevik,31,F,student,stem,bachelor_complete,4,yes,occasionally,both,31,3,high,low,7,gamble,B,1530,False,125,2375,2026-02-04T18:37:05.119Z,-0.625431783839614,0.11816030075587465,0.9709505944546686,-0.44227394299174366,0
AUA-20260204-183505-496,Tatevik,31,F,student,stem,bachelor_complete,4,yes,occasionally,both,32,3,high,low,7,gamble,A,3902,False,105,2480,2026-02-04T18:37:10.423Z,0.519019965416959,0.16225932684442898,1.0,0.41710349545034786,0
AUA-20260204-183505-496,Tatevik,31,F,student,stem,bachelor_complete,4,yes,occasionally,both,33,3,high,low,7,stroop,B,921,False,125,2605,2026-02-04T18:37:11.383Z,-0.9192644631386244,-0.19347603349573597,1.0,0.41710349545034786,0
AUA-20260204-183505-496,Tatevik,31,F,student,stem,bachelor_complete,4,yes,occasionally,both,34,3,high,low,7,crt,A,5326,False,5,2610,2026-02-04T18:37:17.926Z,1.2060770020701461,0.1533816235618316,1.0,-0.47963817944574766,0
AUA-20260204-183505-496,Tatevik,31,F,student,stem,bachelor_complete,4,yes,occasionally,both,35,3,high,low,7,flanker,B,2654,False,125,2735,2026-02-04T18:37:21.100Z,-0.08311990940268811,0.1771680785527039,0.9709505944546686,-0.6290951252617635,0
AUA-20260204-183505-496,Tatevik,31,F,student,stem,bachelor_complete,4,yes,occasionally,both,36,3,high,low,7,gamble,A,2108,False,105,2840,2026-02-04T18:37:24.396Z,-0.3465561046362837,-0.08950075863705494,0.9709505944546686,-0.9280090168937953,0
AUA-20260204-183505-496,Tatevik,31,F,student,stem,bachelor_complete,4,yes,occasionally,both,37,3,high,low,7,crt,B,6496,False,145,2985,2026-02-04T18:37:31.910Z,1.7705831347135654,0.382706208899795,0.9709505944546686,-0.7785520710777795,0
AUA-20260204-183505-496,Tatevik,31,F,student,stem,bachelor_complete,4,yes,occasionally,both,38,3,high,low,7,stroop,A,1850,False,125,3110,2026-02-04T18:37:34.913Z,-0.4710369441422685,-0.15005248483085756,0.9709505944546686,-1.0027374898018033,0
AUA-20260204-183505-496,Tatevik,31,F,student,stem,bachelor_complete,4,yes,occasionally,both,39,3,high,low,7,reverse-stroop,B,1371,False,125,3235,2026-02-04T18:37:36.161Z,-0.7021467198142324,-0.13625344603290732,0.9709505944546686,-1.0774659627098113,0
AUA-20260204-183505-496,Tatevik,31,F,student,stem,bachelor_complete,4,yes,occasionally,both,40,3,high,low,7,reverse-stroop,B,2334,False,125,3360,2026-02-04T18:37:39.358Z,-0.23751474910003353,-0.22546471434552978,0.9709505944546686,-0.18072428781371583,0
AUA-20260204-183505-496,Tatevik,31,F,student,stem,bachelor_complete,4,yes,occasionally,both,41,4,high,high,7,flanker,A,2820,False,125,3485,2026-02-04T18:37:42.553Z,-0.003027586309690177,-0.33136992470042764,1.0,-0.18072428781371583,0
AUA-20260204-183505-496,Tatevik,31,F,student,stem,bachelor_complete,4,yes,occasionally,both,42,4,high,high,7,numerical-stroop,B,825,False,125,3610,2026-02-04T18:37:44.088Z,-0.965582915047828,-0.028997280830657682,0.9709505944546686,-0.0312673419976999,0
AUA-20260204-183505-496,Tatevik,31,F,student,stem,bachelor_complete,4,yes,occasionally,both,43,4,high,high,7,numerical-stroop,B,456,False,125,3735,2026-02-04T18:37:45.340Z,-1.1436194645738296,-0.1611013655466989,0.9709505944546686,-0.0312673419976999,0
AUA-20260204-183505-496,Tatevik,31,F,student,stem,bachelor_complete,4,yes,occasionally,both,44,4,high,high,7,gamble,B,1804,False,159,3894,2026-02-04T18:37:47.134Z,-0.4932312023487619,-0.16520247847615963,0.8812908992306927,1.1195511407856231,0
AUA-20260204-183505-496,Tatevik,31,F,student,stem,bachelor_complete,4,yes,occasionally,both,45,4,high,high,7,stroop,B,1733,False,125,4019,2026-02-04T18:37:50.237Z,-0.5274875574066104,-0.05765682294947743,0.8812908992306927,1.1195511407856231,0
AUA-20260204-183505-496,Tatevik,31,F,student,stem,bachelor_complete,4,yes,occasionally,both,46,4,high,high,7,gamble,A,1810,False,150,4169,2026-02-04T18:37:52.187Z,-0.49033629910443666,0.1566625139054002,0.8812908992306927,1.455829268871659,0
AUA-20260204-183505-496,Tatevik,31,F,student,stem,bachelor_complete,4,yes,occasionally,both,47,4,high,high,7,number-word,A,2905,False,125,4294,2026-02-04T18:37:56.490Z,0.0379835429849172,0.2366100918361819,0.9709505944546686,1.306372323055643,0
AUA-20260204-183505-496,Tatevik,31,F,student,stem,bachelor_complete,4,yes,occasionally,both,48,4,high,high,7,numerical-stroop,B,200,False,125,4419,2026-02-04T18:37:57.415Z,-1.2671353363317057,-0.09823371675743602,0.8812908992306927,1.306372323055643,0
AUA-20260204-183505-496,Tatevik,31,F,student,stem,bachelor_complete,4,yes,occasionally,both,49,4,high,high,7,gamble,B,1977,False,155,4574,2026-02-04T18:37:59.423Z,-0.4097614921373845,-0.05413469066888174,0.8812908992306927,1.530557741779667,0
AUA-20260204-183505-496,Tatevik,31,F,student,stem,bachelor_complete,4,yes,occasionally,both,50,4,high,high,7,reverse-stroop,B,2427,False,125,4699,2026-02-04T18:38:02.213Z,-0.1926437488129925,0.014764006546058661,0.8812908992306927,1.530557741779667,0
AUA-20260204-191953-258,Arpi,24,F,unemployed,humanities,bachelor_progress,3,no,never,both,11,1,low,low,12,stroop,A,3440,False,125,125,2026-02-04T19:20:46.540Z,0.25620748987745123,0.0,3.4661978738266075e-09,0.8219883037387097,0
AUA-20260204-191953-258,Arpi,24,F,unemployed,humanities,bachelor_progress,3,no,never,both,12,1,low,low,12,flanker,B,1561,False,125,250,2026-02-04T19:20:48.785Z,-0.7600231787166296,0.0,1.0,0.8219883037387097,0
AUA-20260204-191953-258,Arpi,24,F,unemployed,humanities,bachelor_progress,3,no,never,both,13,1,low,low,12,reverse-stroop,,12000,True,-10,240,2026-02-04T19:21:00.149Z,4.885762850795669,0.0,0.9182958340544896,-2.8308277649168483,1
AUA-20260204-191953-258,Arpi,24,F,unemployed,humanities,bachelor_progress,3,no,never,both,14,1,low,low,12,crt,A,1651,False,145,385,2026-02-04T19:21:03.695Z,-0.7113479471181904,0.0,1.0,-1.5117552956801188,0
AUA-20260204-191953-258,Arpi,24,F,unemployed,humanities,bachelor_progress,3,no,never,both,15,1,low,low,12,number-word,B,2387,False,125,510,2026-02-04T19:21:05.191Z,-0.3132927198242875,-0.1090325187805038,0.9709505944546686,-1.0450065757963531,0
AUA-20260204-191953-258,Arpi,24,F,unemployed,humanities,bachelor_progress,3,no,never,both,16,1,low,low,12,gamble,A,4296,False,115,625,2026-02-04T19:21:10.235Z,0.719163025969273,-0.22406831612481506,1.0,-0.8691302465647889,0
AUA-20260204-191953-258,Arpi,24,F,unemployed,humanities,bachelor_progress,3,no,never,both,17,1,low,low,12,stroop,A,1697,False,125,750,2026-02-04T19:21:13.816Z,-0.6864694954123214,-0.9713953719328519,0.9852281360342515,-0.6275418822357183,0
AUA-20260204-191953-258,Arpi,24,F,unemployed,humanities,bachelor_progress,3,no,never,both,18,1,low,low,12,gamble,B,2868,False,150,900,2026-02-04T19:21:16.553Z,-0.05315064872596242,0.09432178211964219,1.0,-0.19268282644338972,0
AUA-20260204-191953-258,Arpi,24,F,unemployed,humanities,bachelor_progress,3,no,never,both,19,1,low,low,12,reverse-stroop,A,2687,False,125,1025,2026-02-04T19:21:20.647Z,-0.15104194782949015,-0.04478121307056407,0.9910760598382222,-0.07994158975649004,0
AUA-20260204-191953-258,Arpi,24,F,unemployed,humanities,bachelor_progress,3,no,never,both,20,1,low,low,12,stroop,A,2732,False,125,1150,2026-02-04T19:21:23.775Z,-0.12670433203027054,-0.11563071684162557,0.9709505944546686,0.010251399593030149,0
AUA-20260204-191953-258,Arpi,24,F,unemployed,humanities,bachelor_progress,3,no,never,both,21,2,low,high,12,flanker,B,3048,False,125,1275,2026-02-04T19:21:27.017Z,0.044199814470916,0.13877849364621667,1.0,0.010251399593030149,0
AUA-20260204-191953-258,Arpi,24,F,unemployed,humanities,bachelor_progress,3,no,never,both,22,2,low,high,12,reverse-stroop,A,2761,False,125,1400,2026-02-04T19:21:31.846Z,-0.11102009073744014,0.00795028782774507,0.9709505944546686,0.010251399593030149,0
AUA-20260204-191953-258,Arpi,24,F,unemployed,humanities,bachelor_progress,3,no,never,both,23,2,low,high,12,stroop,B,2735,False,125,1525,2026-02-04T19:21:34.667Z,-0.12508182431032258,0.006760448833116556,0.9709505944546686,1.1060962201896976,0
AUA-20260204-191953-258,Arpi,24,F,unemployed,humanities,bachelor_progress,3,no,never,both,24,2,low,high,12,reverse-stroop,A,1865,False,125,1650,2026-02-04T19:21:37.417Z,-0.5956090630952349,-0.11070911009111672,0.9709505944546686,0.9437488393605615,0
AUA-20260204-191953-258,Arpi,24,F,unemployed,humanities,bachelor_progress,3,no,never,both,25,2,low,high,12,number-word,B,2395,False,125,1775,2026-02-04T19:21:41.095Z,-0.3089660325710929,-0.11909206664418126,0.9709505944546686,0.9437488393605615,0
AUA-20260204-191953-258,Arpi,24,F,unemployed,humanities,bachelor_progress,3,no,never,both,26,2,low,high,12,gamble,B,2849,False,159,1934,2026-02-04T19:21:44.015Z,-0.06342653095229958,-0.008869708869048925,1.0,1.300913077184661,0
AUA-20260204-191953-258,Arpi,24,F,unemployed,humanities,bachelor_progress,3,no,never,both,27,2,low,high,12,gamble,A,3772,False,115,2049,2026-02-04T19:21:49.310Z,0.43576501088502695,0.16538762025336343,1.0,1.219739386770093,0
AUA-20260204-191953-258,Arpi,24,F,unemployed,humanities,bachelor_progress,3,no,never,both,28,2,low,high,12,number-word,B,3395,False,5,2054,2026-02-04T19:21:53.249Z,0.23186987407823162,0.23996889178030525,1.0,0.04272087575885779,0
AUA-20260204-191953-258,Arpi,24,F,unemployed,humanities,bachelor_progress,3,no,never,both,29,2,low,high,12,number-word,B,3219,False,5,2059,2026-02-04T19:21:56.946Z,0.1366827545079505,0.1186593979188618,0.9709505944546686,-0.9313634092159575,0
AUA-20260204-191953-258,Arpi,24,F,unemployed,humanities,bachelor_progress,3,no,never,both,30,2,low,high,12,stroop,A,2976,False,125,2184,2026-02-04T19:22:00.774Z,0.0052596291921646315,-0.0161709936088148,0.9709505944546686,-0.9313634092159575,0
AUA-20260204-191953-258,Arpi,24,F,unemployed,humanities,bachelor_progress,3,no,never,both,31,3,high,low,7,reverse-stroop,A,2303,False,125,2309,2026-02-04T19:22:03.160Z,-0.3587229359828308,-0.18155861386217825,1.0,-0.9313634092159575,0
AUA-20260204-191953-258,Arpi,24,F,unemployed,humanities,bachelor_progress,3,no,never,both,32,3,high,low,7,number-word,B,2765,False,125,2434,2026-02-04T19:22:07.449Z,-0.10885674711084284,-0.11768589328689304,0.9709505944546686,-0.9313634092159575,0
AUA-20260204-191953-258,Arpi,24,F,unemployed,humanities,bachelor_progress,3,no,never,both,33,3,high,low,7,numerical-stroop,B,1715,False,125,2559,2026-02-04T19:22:09.686Z,-0.6767344490926336,-0.17409507835041757,0.9709505944546686,-0.9313634092159575,0
AUA-20260204-191953-258,Arpi,24,F,unemployed,humanities,bachelor_progress,3,no,never,both,34,3,high,low,7,reverse-stroop,B,1623,False,125,2684,2026-02-04T19:22:12.519Z,-0.7264913525043715,-0.1781513476502875,0.8812908992306927,-0.9313634092159575,0
AUA-20260204-191953-258,Arpi,24,F,unemployed,humanities,bachelor_progress,3,no,never,both,35,3,high,low,7,gamble,B,1787,False,105,2789,2026-02-04T19:22:14.537Z,-0.6377942638138823,-0.11757772610556316,0.8812908992306927,-1.0937107900450935,0
AUA-20260204-191953-258,Arpi,24,F,unemployed,humanities,bachelor_progress,3,no,never,both,36,3,high,low,7,flanker,B,3165,False,125,2914,2026-02-04T19:22:18.802Z,0.10747761554888696,0.047160891059821075,0.8812908992306927,-1.369701337454625,0
AUA-20260204-191953-258,Arpi,24,F,unemployed,humanities,bachelor_progress,3,no,never,both,37,3,high,low,7,number-word,A,2545,False,125,3039,2026-02-04T19:22:21.818Z,-0.22784064657369424,0.17317565730911375,0.8812908992306927,-1.288527647040057,0
AUA-20260204-191953-258,Arpi,24,F,unemployed,humanities,bachelor_progress,3,no,never,both,38,3,high,low,7,numerical-stroop,A,1659,False,125,3164,2026-02-04T19:22:24.029Z,-0.7070212598649958,0.04488938025189396,0.9709505944546686,-0.31444336206524165,0
AUA-20260204-191953-258,Arpi,24,F,unemployed,humanities,bachelor_progress,3,no,never,both,39,3,high,low,7,flanker,A,2323,False,125,3289,2026-02-04T19:22:27.639Z,-0.34790621784984427,-0.023472278348580674,1.0,0.6596409229095738,0
AUA-20260204-191953-258,Arpi,24,F,unemployed,humanities,bachelor_progress,3,no,never,both,40,3,high,low,7,numerical-stroop,B,2374,False,125,3414,2026-02-04T19:22:30.218Z,-0.32032358661072874,-0.09756679755953813,0.9709505944546686,0.6596409229095738,0
AUA-20260204-191953-258,Arpi,24,F,unemployed,humanities,bachelor_progress,3,no,never,both,41,4,high,high,7,gamble,B,864,False,125,3539,2026-02-04T19:22:32.169Z,-1.1369858056512088,-0.1431592644900762,0.8812908992306927,0.6596409229095738,0
AUA-20260204-191953-258,Arpi,24,F,unemployed,humanities,bachelor_progress,3,no,never,both,42,4,high,high,7,number-word,A,3728,False,125,3664,2026-02-04T19:22:36.661Z,0.41196823099245666,0.14488993939135406,0.9709505944546686,0.6596409229095738,0
AUA-20260204-191953-258,Arpi,24,F,unemployed,humanities,bachelor_progress,3,no,never,both,43,4,high,high,7,reverse-stroop,B,2734,False,125,3789,2026-02-04T19:22:40.258Z,-0.1256226602169719,0.11768589328689304,0.9709505944546686,0.6596409229095738,0
AUA-20260204-191953-258,Arpi,24,F,unemployed,humanities,bachelor_progress,3,no,never,both,44,4,high,high,7,gamble,B,1004,False,125,3914,2026-02-04T19:22:41.085Z,-1.0612687787203032,-0.047052723878491215,0.9709505944546686,0.6596409229095738,0
AUA-20260204-191953-258,Arpi,24,F,unemployed,humanities,bachelor_progress,3,no,never,both,45,4,high,high,7,gamble,A,4203,False,145,4059,2026-02-04T19:22:46.643Z,0.6688652866508858,0.21384651748914296,1.0,0.9843356845678456,0
AUA-20260204-191953-258,Arpi,24,F,unemployed,humanities,bachelor_progress,3,no,never,both,46,4,high,high,7,crt,A,5348,False,145,4204,2026-02-04T19:22:52.173Z,1.2881223997643625,0.2546796284411669,0.9709505944546686,1.1466830653969815,0
AUA-20260204-191953-258,Arpi,24,F,unemployed,humanities,bachelor_progress,3,no,never,both,47,4,high,high,7,stroop,A,2275,False,125,4329,2026-02-04T19:22:55.304Z,-0.37386634136901187,0.1852903816180586,0.9709505944546686,1.1466830653969815,0
AUA-20260204-191953-258,Arpi,24,F,unemployed,humanities,bachelor_progress,3,no,never,both,48,4,high,high,7,stroop,A,2268,False,125,4454,2026-02-04T19:22:58.404Z,-0.3776521927155571,0.032450154398959444,0.9709505944546686,1.1466830653969815,0
AUA-20260204-191953-258,Arpi,24,F,unemployed,humanities,bachelor_progress,3,no,never,both,49,4,high,high,7,stroop,B,2634,False,125,4579,2026-02-04T19:23:02.164Z,-0.17970625088190437,-0.33629176675454997,1.0,1.1466830653969815,0
AUA-20260204-191953-258,Arpi,24,F,unemployed,humanities,bachelor_progress,3,no,never,both,50,4,high,high,7,reverse-stroop,,7000,True,-10,4569,2026-02-04T19:23:09.793Z,2.1815833175490464,0.19810819260564752,1.0,0.050838244800314125,1
AUA-20260205-144144-205,Marina,19,M,student,humanities,bachelor_progress,2,no,occasionally,right,11,1,low,low,12,flanker,B,1813,False,125,125,2026-02-05T14:42:26.294Z,-0.597758029969822,0.0,3.4661976109059578e-09,-0.1858463135002162,0
AUA-20260205-144144-205,Marina,19,M,student,humanities,bachelor_progress,2,no,occasionally,right,12,1,low,low,12,flanker,B,2734,False,125,250,2026-02-05T14:42:30.974Z,-0.12960594714305604,0.0,3.4661976109059578e-09,-0.1858463135002162,0
AUA-20260205-144144-205,Marina,19,M,student,humanities,bachelor_progress,2,no,occasionally,right,13,1,low,low,12,flanker,A,2677,False,125,375,2026-02-05T14:42:33.214Z,-0.1585795288163738,0.0,0.9182958340544896,-0.1858463135002162,0
AUA-20260205-144144-205,Marina,19,M,student,humanities,bachelor_progress,2,no,occasionally,right,14,1,low,low,12,crt,B,4771,False,145,520,2026-02-05T14:42:39.525Z,0.9058183663402471,0.0,0.8112781244591328,0.45069151867177626,0
AUA-20260205-144144-205,Marina,19,M,student,humanities,bachelor_progress,2,no,occasionally,right,15,1,low,low,12,stroop,,12000,True,-10,510,2026-02-05T14:42:52.159Z,4.5803801543475124,1.1391700682117971,0.7219280948873623,-3.1139203414913816,1
AUA-20260205-144144-205,Marina,19,M,student,humanities,bachelor_progress,2,no,occasionally,right,16,1,low,low,12,gamble,B,5502,False,150,660,2026-02-05T14:42:58.269Z,1.2773918435892873,0.7552955264628572,0.6500224216483541,-2.0954598100161936,0
AUA-20260205-144144-205,Marina,19,M,student,humanities,bachelor_progress,2,no,occasionally,right,17,1,low,low,12,gamble,A,4832,False,125,785,2026-02-05T14:43:04.771Z,0.9368251818152012,0.25623828985121905,0.863120568566631,-1.822657881942483,0
AUA-20260205-144144-205,Marina,19,M,student,humanities,bachelor_progress,2,no,occasionally,right,18,1,low,low,12,numerical-stroop,B,2718,False,125,910,2026-02-05T14:43:07.875Z,-0.13773888234960138,-0.5730669469912009,0.8112781244591328,-1.6180564358871992,0
AUA-20260205-144144-205,Marina,19,M,student,humanities,bachelor_progress,2,no,occasionally,right,19,1,low,low,12,number-word,B,4644,False,125,1035,2026-02-05T14:43:12.272Z,0.8412631931382936,-0.8893364648357327,0.7642045065086203,-1.458921977844201,0
AUA-20260205-144144-205,Marina,19,M,student,humanities,bachelor_progress,2,no,occasionally,right,20,1,low,low,12,gamble,B,3481,False,155,1190,2026-02-05T14:43:17.773Z,0.2501004653125294,-0.21501447452304234,0.7219280948873623,-0.9496917121066071,0
AUA-20260205-144144-205,Marina,19,M,student,humanities,bachelor_progress,2,no,occasionally,right,21,2,low,high,12,crt,A,2418,False,145,1335,2026-02-05T14:43:20.104Z,-0.29023141747232645,-0.2066273850912925,0.8812908992306927,-0.6950765792378101,0
AUA-20260205-144144-205,Marina,19,M,student,humanities,bachelor_progress,2,no,occasionally,right,22,2,low,high,12,flanker,A,2285,False,125,1460,2026-02-05T14:43:23.274Z,-0.35783644137673454,-0.15716897286648865,0.9709505944546686,-0.6950765792378101,0
AUA-20260205-144144-205,Marina,19,M,student,humanities,bachelor_progress,2,no,occasionally,right,23,2,low,high,12,stroop,A,2258,False,125,1585,2026-02-05T14:43:26.883Z,-0.37156076953777983,-0.30335848320414116,0.9709505944546686,-0.6950765792378101,0
AUA-20260205-144144-205,Marina,19,M,student,humanities,bachelor_progress,2,no,occasionally,right,24,2,low,high,12,gamble,A,3611,False,125,1710,2026-02-05T14:43:30.299Z,0.31618056386571025,0.00508308450409083,1.0,-0.9496917121066071,0
AUA-20260205-144144-205,Marina,19,M,student,humanities,bachelor_progress,2,no,occasionally,right,25,2,low,high,12,gamble,B,3023,False,159,1869,2026-02-05T14:43:33.412Z,0.017295195025169116,0.1289070230237436,1.0,1.2018061606347281,0
AUA-20260205-144144-205,Marina,19,M,student,humanities,bachelor_progress,2,no,occasionally,right,26,2,low,high,12,gamble,A,2419,False,150,2019,2026-02-05T14:43:36.830Z,-0.28972310902191734,0.052508262927258346,0.9709505944546686,1.2018061606347281,0
AUA-20260205-144144-205,Marina,19,M,student,humanities,bachelor_progress,2,no,occasionally,right,27,2,low,high,12,flanker,B,4487,False,125,2144,2026-02-05T14:43:41.067Z,0.7614587664240674,0.16601353990360668,1.0,1.2018061606347281,0
AUA-20260205-144144-205,Marina,19,M,student,humanities,bachelor_progress,2,no,occasionally,right,28,2,low,high,12,stroop,B,4115,False,125,2269,2026-02-05T14:43:46.812Z,0.5723680228718884,0.12565384894112547,1.0,1.2018061606347281,0
AUA-20260205-144144-205,Marina,19,M,student,humanities,bachelor_progress,2,no,occasionally,right,29,2,low,high,12,gamble,B,6388,False,105,2374,2026-02-05T14:43:53.831Z,1.7277531306517353,0.42830070031469386,1.0,0.9471910277659311,0
AUA-20260205-144144-205,Marina,19,M,student,humanities,bachelor_progress,2,no,occasionally,right,30,2,low,high,12,flanker,B,2004,False,125,2499,2026-02-05T14:43:56.791Z,-0.500671115941687,0.054439835038812806,1.0,0.5652683284627357,0
AUA-20260205-144144-205,Marina,19,M,student,humanities,bachelor_progress,2,no,occasionally,right,31,3,high,low,7,stroop,B,1687,False,125,2624,2026-02-05T14:43:58.041Z,-0.6618048947213665,-0.39195664611044434,0.9709505944546686,0.3106531955939386,0
AUA-20260205-144144-205,Marina,19,M,student,humanities,bachelor_progress,2,no,occasionally,right,32,3,high,low,7,stroop,A,3362,False,125,2749,2026-02-05T14:44:03.339Z,0.18961175971384844,-0.31550705516891825,0.9709505944546686,0.3106531955939386,0
AUA-20260205-144144-205,Marina,19,M,student,humanities,bachelor_progress,2,no,occasionally,right,33,3,high,low,7,stroop,A,3327,False,125,2874,2026-02-05T14:44:07.547Z,0.1718209639495305,-0.24215814577488742,0.9709505944546686,0.3106531955939386,0
AUA-20260205-144144-205,Marina,19,M,student,humanities,bachelor_progress,2,no,occasionally,right,34,3,high,low,7,gamble,A,3509,False,159,3033,2026-02-05T14:44:12.648Z,0.26433310192398374,0.23636342944022384,0.9709505944546686,0.7434989214708942,0
AUA-20260205-144144-205,Marina,19,M,student,humanities,bachelor_progress,2,no,occasionally,right,35,3,high,low,7,stroop,B,2059,False,125,3158,2026-02-05T14:44:15.614Z,-0.4727141511691874,0.04529028293144935,0.9709505944546686,0.3106531955939386,0
AUA-20260205-144144-205,Marina,19,M,student,humanities,bachelor_progress,2,no,occasionally,right,36,3,high,low,7,stroop,B,1869,False,125,3283,2026-02-05T14:44:17.791Z,-0.5692927567469133,-0.21623441480402417,0.8812908992306927,-0.00761572049205757,0
AUA-20260205-144144-205,Marina,19,M,student,humanities,bachelor_progress,2,no,occasionally,right,37,3,high,low,7,gamble,A,3749,False,159,3442,2026-02-05T14:44:22.813Z,0.3863271300221638,-0.04046135265256304,0.9709505944546686,0.425230005384898,0
AUA-20260205-144144-205,Marina,19,M,student,humanities,bachelor_progress,2,no,occasionally,right,38,3,high,low,7,numerical-stroop,B,200,False,125,3567,2026-02-05T14:44:23.241Z,-1.4176595604796738,-0.2504944043615964,0.9709505944546686,0.425230005384898,0
AUA-20260205-144144-205,Marina,19,M,student,humanities,bachelor_progress,2,no,occasionally,right,39,3,high,low,7,crt,A,1254,False,145,3712,2026-02-05T14:44:25.464Z,-0.8819024537484997,-0.16667434088913854,1.0,0.934460271122492,0
AUA-20260205-144144-205,Marina,19,M,student,humanities,bachelor_progress,2,no,occasionally,right,40,3,high,low,7,reverse-stroop,A,3195,False,125,3837,2026-02-05T14:44:29.825Z,0.10472424849553148,0.007980442671422594,0.9709505944546686,0.934460271122492,0
AUA-20260205-144144-205,Marina,19,M,student,humanities,bachelor_progress,2,no,occasionally,right,41,4,high,high,7,numerical-stroop,A,1258,False,125,3962,2026-02-05T14:44:31.730Z,-0.8798692199468634,-0.10100088909628491,0.8812908992306927,0.934460271122492,0
AUA-20260205-144144-205,Marina,19,M,student,humanities,bachelor_progress,2,no,occasionally,right,42,4,high,high,7,reverse-stroop,B,1004,False,125,4087,2026-02-05T14:44:33.311Z,-1.0089795663507706,0.0819393222059443,0.9709505944546686,0.934460271122492,0
AUA-20260205-144144-205,Marina,19,M,student,humanities,bachelor_progress,2,no,occasionally,right,43,4,high,high,7,flanker,B,1392,False,125,4212,2026-02-05T14:44:35.308Z,-0.8117558875920462,-0.0973410682533395,1.0,0.934460271122492,0
AUA-20260205-144144-205,Marina,19,M,student,humanities,bachelor_progress,2,no,occasionally,right,44,4,high,high,7,gamble,A,2229,False,115,4327,2026-02-05T14:44:38.135Z,-0.38630171459964324,-0.09139385938355325,1.0,0.3743069788111379,0
AUA-20260205-144144-205,Marina,19,M,student,humanities,bachelor_progress,2,no,occasionally,right,45,4,high,high,7,numerical-stroop,A,1723,False,125,4452,2026-02-05T14:44:40.239Z,-0.6435057905066395,0.10954047106315752,0.9709505944546686,0.3743069788111379,0
AUA-20260205-144144-205,Marina,19,M,student,humanities,bachelor_progress,2,no,occasionally,right,46,4,high,high,7,gamble,B,1517,False,125,4577,2026-02-05T14:44:42.750Z,-0.7482173312909107,0.06897745672051264,0.9709505944546686,0.3743069788111379,0
AUA-20260205-144144-205,Marina,19,M,student,humanities,bachelor_progress,2,no,occasionally,right,47,4,high,high,7,number-word,B,2660,False,125,4702,2026-02-05T14:44:45.917Z,-0.16722077247332823,0.09271546135461685,1.0,-0.05853874706581769,0
AUA-20260205-144144-205,Marina,19,M,student,humanities,bachelor_progress,2,no,occasionally,right,48,4,high,high,7,numerical-stroop,B,1946,False,125,4827,2026-02-05T14:44:48.479Z,-0.5301530060654139,0.018858243510176988,1.0,-0.05853874706581769,0
AUA-20260205-144144-205,Marina,19,M,student,humanities,bachelor_progress,2,no,occasionally,right,49,4,high,high,7,numerical-stroop,B,1995,False,125,4952,2026-02-05T14:44:51.575Z,-0.5052458919953687,0.04945841222480383,0.9709505944546686,-0.3131538799346147,0
AUA-20260205-144144-205,Marina,19,M,student,humanities,bachelor_progress,2,no,occasionally,right,50,4,high,high,7,stroop,A,1444,False,125,5077,2026-02-05T14:44:53.490Z,-0.7853238481707738,-0.04122381532817668,0.9709505944546686,-0.3131538799346147,0
AUA-20260206-093703-450,Vachagan,17,M,employed,stem,bachelor_progress,3,no,never,right,11,1,low,low,12,numerical-stroop,B,1734,False,125,125,2026-02-06T09:37:44.871Z,-0.4384212109274394,0.0,3.4661976109059578e-09,0.46434482343223143,0
AUA-20260206-093703-450,Vachagan,17,M,employed,stem,bachelor_progress,3,no,never,right,12,1,low,low,12,number-word,B,2481,False,125,250,2026-02-06T09:37:47.071Z,0.13405730074113087,0.0,3.4661976109059578e-09,0.46434482343223143,0
AUA-20260206-093703-450,Vachagan,17,M,employed,stem,bachelor_progress,3,no,never,right,13,1,low,low,12,numerical-stroop,B,1096,False,125,375,2026-02-06T09:37:49.499Z,-0.9273653748424967,0.0,3.4661976109059578e-09,0.46434482343223143,0
AUA-20260206-093703-450,Vachagan,17,M,employed,stem,bachelor_progress,3,no,never,right,14,1,low,low,12,flanker,A,2910,False,125,500,2026-02-06T09:37:52.597Z,0.4628301006150487,0.0,0.8112781244591328,0.46434482343223143,0
AUA-20260206-093703-450,Vachagan,17,M,employed,stem,bachelor_progress,3,no,never,right,15,1,low,low,12,flanker,B,2639,False,125,625,2026-02-06T09:37:56.564Z,0.2551437864755808,0.17159027946799585,0.7219280948873623,0.46434482343223143,0
AUA-20260206-093703-450,Vachagan,17,M,employed,stem,bachelor_progress,3,no,never,right,16,1,low,low,12,gamble,A,2733,False,145,770,2026-02-06T09:37:59.015Z,0.3271825817859497,0.15687597234077152,0.9182958340544896,0.7190378605428622,0
AUA-20260206-093703-450,Vachagan,17,M,employed,stem,bachelor_progress,3,no,never,right,17,1,low,low,12,stroop,A,2798,False,125,895,2026-02-06T09:38:02.741Z,0.376996642372907,0.24730765156017084,0.9852281360342515,0.6826531409556289,0
AUA-20260206-093703-450,Vachagan,17,M,employed,stem,bachelor_progress,3,no,never,right,18,1,low,low,12,stroop,A,2010,False,125,1020,2026-02-06T09:38:05.375Z,-0.22690304597359015,-0.12576134372799516,1.0,0.655364601265204,0
AUA-20260206-093703-450,Vachagan,17,M,employed,stem,bachelor_progress,3,no,never,right,19,1,low,low,12,stroop,B,4050,False,125,1145,2026-02-06T09:38:10.156Z,1.3364920862939913,0.16086109718772812,0.9910760598382222,0.6341401815059853,0
AUA-20260206-093703-450,Vachagan,17,M,employed,stem,bachelor_progress,3,no,never,right,20,1,low,low,12,numerical-stroop,B,1721,False,125,1270,2026-02-06T09:38:12.806Z,-0.4483840230448308,-0.05916377657404767,0.9709505944546686,0.6171606456986095,0
AUA-20260206-093703-450,Vachagan,17,M,employed,stem,bachelor_progress,3,no,never,right,21,2,low,high,12,stroop,A,2591,False,125,1395,2026-02-06T09:38:16.465Z,0.21835801865752005,-0.05387582245020146,1.0,0.6171606456986095,0
AUA-20260206-093703-450,Vachagan,17,M,employed,stem,bachelor_progress,3,no,never,right,22,2,low,high,12,gamble,B,1980,False,115,1510,2026-02-06T09:38:19.104Z,-0.2498941508598781,-0.11641162774090473,1.0,0.5407527345654205,0
AUA-20260206-093703-450,Vachagan,17,M,employed,stem,bachelor_progress,3,no,never,right,23,2,low,high,12,gamble,B,4292,False,155,1665,2026-02-06T09:38:24.692Z,1.5219536657100474,0.05694130310170649,1.0,0.7699764679649875,0
AUA-20260206-093703-450,Vachagan,17,M,employed,stem,bachelor_progress,3,no,never,right,24,2,low,high,12,flanker,B,1246,False,125,1790,2026-02-06T09:38:26.685Z,-0.812409850411057,0.057554399232007517,0.9709505944546686,0.7699764679649875,0
AUA-20260206-093703-450,Vachagan,17,M,employed,stem,bachelor_progress,3,no,never,right,25,2,low,high,12,crt,A,3448,False,145,1935,2026-02-06T09:38:31.071Z,0.8751372482424795,0.07510427596187402,1.0,0.9227922902313656,0
AUA-20260206-093703-450,Vachagan,17,M,employed,stem,bachelor_progress,3,no,never,right,26,2,low,high,12,flanker,B,4323,False,125,2060,2026-02-06T09:38:36.106Z,1.5457111407592117,0.29443941657706113,0.9709505944546686,0.7699764679649875,0
AUA-20260206-093703-450,Vachagan,17,M,employed,stem,bachelor_progress,3,no,never,right,27,2,low,high,12,reverse-stroop,B,2991,False,125,2185,2026-02-06T09:38:39.651Z,0.5249060838080262,0.03640258273662261,0.8812908992306927,0.7699764679649875,0
AUA-20260206-093703-450,Vachagan,17,M,employed,stem,bachelor_progress,3,no,never,right,28,2,low,high,12,stroop,B,2264,False,125,2310,2026-02-06T09:38:42.461Z,-0.03224502460301873,0.1210098487181623,0.7219280948873623,0.7699764679649875,0
AUA-20260206-093703-450,Vachagan,17,M,employed,stem,bachelor_progress,3,no,never,right,29,2,low,high,12,stroop,B,2471,False,125,2435,2026-02-06T09:38:46.102Z,0.12639359911236822,-0.30754434636224537,0.7219280948873623,0.7699764679649875,0
AUA-20260206-093703-450,Vachagan,17,M,employed,stem,bachelor_progress,3,no,never,right,30,2,low,high,12,reverse-stroop,A,2406,False,125,2560,2026-02-06T09:38:48.022Z,0.07657953852541095,-0.33367756891632594,0.8812908992306927,0.7699764679649875,0
AUA-20260206-093703-450,Vachagan,17,M,employed,stem,bachelor_progress,3,no,never,right,31,3,high,low,7,stroop,A,2161,False,125,2685,2026-02-06T09:38:52.156Z,-0.11118115137927406,-0.11633499072461709,0.8812908992306927,0.7699764679649875,0
AUA-20260206-093703-450,Vachagan,17,M,employed,stem,bachelor_progress,3,no,never,right,32,3,high,low,7,numerical-stroop,A,323,False,5,2690,2026-02-06T09:38:53.274Z,-1.5197695107458498,-0.32126237227773047,0.9709505944546686,-0.07051055450009173,0
AUA-20260206-093703-450,Vachagan,17,M,employed,stem,bachelor_progress,3,no,never,right,33,3,high,low,7,stroop,B,2538,False,125,2815,2026-02-06T09:38:56.618Z,0.177740400025078,-0.14936554474458413,0.9709505944546686,-0.2997342878996588,0
AUA-20260206-093703-450,Vachagan,17,M,employed,stem,bachelor_progress,3,no,never,right,34,3,high,low,7,gamble,A,2448,False,145,2960,2026-02-06T09:38:59.190Z,0.1087670853662141,0.035329664508595836,1.0,-0.14691846563328076,0
AUA-20260206-093703-450,Vachagan,17,M,employed,stem,bachelor_progress,3,no,never,right,35,3,high,low,7,gamble,A,2582,False,155,3115,2026-02-06T09:39:02.828Z,0.21146068719163366,0.22738202732538798,1.0,-0.07051055450009173,0
AUA-20260206-093703-450,Vachagan,17,M,employed,stem,bachelor_progress,3,no,never,right,36,3,high,low,7,numerical-stroop,B,1522,False,5,3120,2026-02-06T09:39:05.947Z,-0.6008916854572076,0.18714759377438397,1.0,-0.98740548809836,0
AUA-20260206-093703-450,Vachagan,17,M,employed,stem,bachelor_progress,3,no,never,right,37,3,high,low,7,gamble,,7000,True,-10,3110,2026-02-06T09:39:12.617Z,3.597284066778974,0.6129428562684371,1.0,-2.018912288396412,1
AUA-20260206-093703-450,Vachagan,17,M,employed,stem,bachelor_progress,3,no,never,right,38,3,high,low,7,numerical-stroop,A,1286,False,125,3235,2026-02-06T09:39:14.038Z,-0.7817550438960063,0.16047791210628995,0.9709505944546686,-2.018912288396412,0
AUA-20260206-093703-450,Vachagan,17,M,employed,stem,bachelor_progress,3,no,never,right,39,3,high,low,7,numerical-stroop,A,2293,False,125,3360,2026-02-06T09:39:18.574Z,-0.010020289879607031,-0.06238253125812801,0.8812908992306927,-2.018912288396412,0
AUA-20260206-093703-450,Vachagan,17,M,employed,stem,bachelor_progress,3,no,never,right,40,3,high,low,7,numerical-stroop,B,1950,False,125,3485,2026-02-06T09:39:20.529Z,-0.27288525574616607,-0.29512914972364984,0.9709505944546686,-2.018912288396412,0
AUA-20260206-093703-450,Vachagan,17,M,employed,stem,bachelor_progress,3,no,never,right,41,4,high,high,7,stroop,B,1002,False,125,3610,2026-02-06T09:39:23.479Z,-0.9994041701528656,-0.8684506685713839,1.0,-2.018912288396412,0
AUA-20260206-093703-450,Vachagan,17,M,employed,stem,bachelor_progress,3,no,never,right,42,4,high,high,7,stroop,B,850,False,125,3735,2026-02-06T09:39:24.492Z,-1.115892434910058,-0.16576586623013623,0.9709505944546686,-1.1020173547981436,0
AUA-20260206-093703-450,Vachagan,17,M,employed,stem,bachelor_progress,3,no,never,right,43,4,high,high,7,reverse-stroop,B,743,False,125,3860,2026-02-06T09:39:26.105Z,-1.1978940423378184,-0.3218754684080315,0.9709505944546686,-1.1020173547981436,0
AUA-20260206-093703-450,Vachagan,17,M,employed,stem,bachelor_progress,3,no,never,right,44,4,high,high,7,stroop,B,1056,False,125,3985,2026-02-06T09:39:28.053Z,-0.9580201813575473,-0.15687597234077155,0.8812908992306927,-1.2548331770645216,0
AUA-20260206-093703-450,Vachagan,17,M,employed,stem,bachelor_progress,3,no,never,right,45,4,high,high,7,gamble,A,5065,False,150,4135,2026-02-06T09:39:34.869Z,2.1143578016134006,0.6385396197085044,0.8812908992306927,-1.293037132631116,0
AUA-20260206-093703-450,Vachagan,17,M,employed,stem,bachelor_progress,3,no,never,right,46,4,high,high,7,flanker,A,1810,False,125,4260,2026-02-06T09:39:36.679Z,-0.3801770785488432,0.47836825566736485,0.9709505944546686,-0.37614219903284785,0
AUA-20260206-093703-450,Vachagan,17,M,employed,stem,bachelor_progress,3,no,never,right,47,4,high,high,7,flanker,A,1306,False,125,4385,2026-02-06T09:39:38.794Z,-0.766427640638481,0.14407759062073786,1.0,0.655364601265204,0
AUA-20260206-093703-450,Vachagan,17,M,employed,stem,bachelor_progress,3,no,never,right,48,4,high,high,7,number-word,A,1617,False,125,4510,2026-02-06T09:39:41.959Z,-0.5280865199839624,-0.20209181195047116,1.0,0.655364601265204,0
AUA-20260206-093703-450,Vachagan,17,M,employed,stem,bachelor_progress,3,no,never,right,49,4,high,high,7,crt,B,2197,False,145,4655,2026-02-06T09:39:44.736Z,-0.08359182551572851,-0.4543808695693377,0.9709505944546686,0.808180423531582,0
AUA-20260206-093703-450,Vachagan,17,M,employed,stem,bachelor_progress,3,no,never,right,50,4,high,high,7,numerical-stroop,B,310,False,125,4780,2026-02-06T09:39:45.106Z,-1.5297323228632413,-0.1616274673506044,0.9709505944546686,0.808180423531582,0
AUA-20260206-125824-221,Ashot,49,F,employed,other,bachelor_complete,2,no,occasionally,right,11,1,low,low,12,numerical-stroop,B,3789,False,125,125,2026-02-06T12:59:10.119Z,0.39890206692017494,0.0,3.4661976109059578e-09,0.8394550584700164,0
AUA-20260206-125824-221,Ashot,49,F,employed,other,bachelor_complete,2,no,occasionally,right,12,1,low,low,12,stroop,A,2912,False,125,250,2026-02-06T12:59:14.241Z,-0.16530584000506224,0.0,1.0,0.8394550584700164,0
AUA-20260206-125824-221,Ashot,49,F,employed,other,bachelor_complete,2,no,occasionally,right,13,1,low,low,12,flanker,B,2710,False,125,375,2026-02-06T12:59:18.724Z,-0.2952602267768957,0.0,0.9182958340544896,0.8394550584700164,0
AUA-20260206-125824-221,Ashot,49,F,employed,other,bachelor_complete,2,no,occasionally,right,14,1,low,low,12,number-word,A,4680,False,125,500,2026-02-06T12:59:23.261Z,0.9721167135226679,0.0,1.0,0.8394550584700164,0
AUA-20260206-125824-221,Ashot,49,F,employed,other,bachelor_complete,2,no,occasionally,right,15,1,low,low,12,number-word,A,4136,False,125,625,2026-02-06T12:59:28.508Z,0.6221405432064433,0.1583899506100267,0.9709505944546686,0.8394550584700164,0
AUA-20260206-125824-221,Ashot,49,F,employed,other,bachelor_complete,2,no,occasionally,right,16,1,low,low,12,gamble,B,1663,False,135,760,2026-02-06T12:59:31.604Z,-0.9688356869259531,-0.0689658923858443,1.0,0.9531794251070858,0
AUA-20260206-125824-221,Ashot,49,F,employed,other,bachelor_complete,2,no,occasionally,right,17,1,low,low,12,numerical-stroop,B,915,False,125,885,2026-02-06T12:59:32.420Z,-1.450052921110762,-0.4250537789116353,0.9852281360342515,0.9369330870160757,0
AUA-20260206-125824-221,Ashot,49,F,employed,other,bachelor_complete,2,no,occasionally,right,18,1,low,low,12,gamble,B,5849,False,145,1030,2026-02-06T12:59:39.238Z,1.7241794765735257,-0.05680679382154903,0.954434002924965,1.0953348834034216,0
AUA-20260206-125824-221,Ashot,49,F,employed,other,bachelor_complete,2,no,occasionally,right,19,1,low,low,12,gamble,A,5945,False,145,1175,2026-02-06T12:59:45.582Z,1.7859399772175653,0.5020614031521723,0.9910760598382222,1.2185362805935789,0
AUA-20260206-125824-221,Ashot,49,F,employed,other,bachelor_complete,2,no,occasionally,right,20,1,low,low,12,gamble,B,4881,False,125,1300,2026-02-06T12:59:51.868Z,1.1014277617461259,0.7376519795672486,0.9709505944546686,1.1806281583812233,0
AUA-20260206-125824-221,Ashot,49,F,employed,other,bachelor_complete,2,no,occasionally,right,21,2,low,high,12,gamble,A,4616,False,159,1459,2026-02-06T12:59:57.925Z,0.9309430464266415,0.4139240220247407,1.0,1.4126258663208442,0
AUA-20260206-125824-221,Ashot,49,F,employed,other,bachelor_complete,2,no,occasionally,right,22,2,low,high,12,flanker,B,2725,False,5,1464,2026-02-06T13:00:01.676Z,-0.2856101485512645,-0.48745761810405047,0.9709505944546686,0.593810426533948,0
AUA-20260206-125824-221,Ashot,49,F,employed,other,bachelor_complete,2,no,occasionally,right,23,2,low,high,12,number-word,B,3788,False,125,1589,2026-02-06T13:00:06.085Z,0.39825872837179954,-0.41624004079889226,0.9709505944546686,0.593810426533948,0
AUA-20260206-125824-221,Ashot,49,F,employed,other,bachelor_complete,2,no,occasionally,right,24,2,low,high,12,reverse-stroop,B,2909,False,125,1714,2026-02-06T13:00:09.918Z,-0.1672358556501885,-0.30700115528474714,0.8812908992306927,0.593810426533948,0
AUA-20260206-125824-221,Ashot,49,F,employed,other,bachelor_complete,2,no,occasionally,right,25,2,low,high,12,stroop,B,2181,False,125,1839,2026-02-06T13:00:12.520Z,-0.6355863188674892,-0.3014684437687185,0.7219280948873623,0.593810426533948,0
AUA-20260206-125824-221,Ashot,49,F,employed,other,bachelor_complete,2,no,occasionally,right,26,2,low,high,12,stroop,A,4054,False,125,1964,2026-02-06T13:00:17.776Z,0.5693867822396593,0.06761488143425591,0.8812908992306927,0.5255758065517067,0
AUA-20260206-125824-221,Ashot,49,F,employed,other,bachelor_complete,2,no,occasionally,right,27,2,low,high,12,stroop,B,3651,False,125,2089,2026-02-06T13:00:21.450Z,0.31012134724436796,0.05603478756349847,0.8812908992306927,0.5255758065517067,0
AUA-20260206-125824-221,Ashot,49,F,employed,other,bachelor_complete,2,no,occasionally,right,28,2,low,high,12,gamble,A,5628,False,105,2194,2026-02-06T13:00:27.485Z,1.5820016573825595,0.44441826921773536,0.9709505944546686,0.2526373266227413,0
